File: data/kucoin_4h - Copia/XRD-USDT.csv
Date,Open,Close,High,Low
2023-03-08 08:00:00,0.03879,0.04021,0.04401,0.03879
2023-03-08 16:00:00,0.0377,0.0382,0.03862,0.037
2023-03-09 00:00:00,0.04072,0.03946,0.04163,0.03946
2023-03-09 08:00:00,0.03845,0.03834,0.03848,0.03828
2023-03-09 16:00:00,0.04112,0.03895,0.04119,0.03879
2023-03-10 00:00:00,0.0389,0.03828,0.03907,0.03828
2023-03-10 08:00:00,0.03814,0.03772,0.03836,0.03772
2023-03-10 16:00:00,0.03809,0.03829,0.03829,0.03789
2023-03-11 00:00:00,0.0387,0.0395,0.03952,0.0385
2023-03-11 08:00:00,0.03891,0.03593,0.03903,0.03577
2023-03-11 16:00:00,0.03603,0.03609,0.03623,0.03572
2023-03-12 00:00:00,0.03662,0.03646,0.03695,0.03646
2023-03-12 08:00:00,0.03651,0.03691,0.03691,0.03651
2023-03-12 16:00:00,0.03671,0.03798,0.03805,0.03668
2023-03-13 00:00:00,0.03848,0.0406,0.04098,0.03839
2023-03-13 08:00:00,0.03909,0.03725,0.03947,0.037
2023-03-13 16:00:00,0.03961,0.03961,0.04027,0.03914
2023-03-14 00:00:00,0.03927,0.03908,0.03953,0.03859
2023-03-14 08:00:00,0.03834,0.03874,0.03897,0.03817
2023-03-14 16:00:00,0.04139,0.03881,0.0415,0.03861
2023-03-15 00:00:00,0.03856,0.03844,0.03869,0.03812
2023-03-15 08:00:00,0.03842,0.03755,0.03923,0.03745
2023-03-15 16:00:00,0.03718,0.03739,0.03739,0.03677
2023-03-16 00:00:00,0.03707,0.0376,0.0377,0.03703
2023-03-16 08:00:00,0.03814,0.03847,0.03854,0.0375
2023-03-16 16:00:00,0.03876,0.03908,0.03957,0.03867
2023-03-17 00:00:00,0.03874,0.03954,0.03954,0.03865
2023-03-17 08:00:00,0.04005,0.0412,0.04133,0.03992
2023-03-17 16:00:00,0.04102,0.03963,0.04102,0.03952
2023-03-18 00:00:00,0.03904,0.04034,0.04034,0.03904
2023-03-18 08:00:00,0.04036,0.04116,0.04203,0.04036
2023-03-18 16:00:00,0.04172,0.04114,0.04204,0.04114
2023-03-19 00:00:00,0.04162,0.04141,0.04166,0.04102
2023-03-19 08:00:00,0.04124,0.04158,0.04161,0.04114
2023-03-19 16:00:00,0.04242,0.04288,0.04342,0.04209
2023-03-20 00:00:00,0.04381,0.04237,0.04387,0.04234
2023-03-20 08:00:00,0.04263,0.04194,0.04352,0.04194
2023-03-20 16:00:00,0.04243,0.04168,0.04243,0.04133
2023-03-21 00:00:00,0.04136,0.04177,0.04182,0.04128
2023-03-21 08:00:00,0.04182,0.0414,0.04182,0.0414
2023-03-21 16:00:00,0.04159,0.04182,0.04203,0.04148
2023-03-22 00:00:00,0.04188,0.04194,0.04197,0.04169
2023-03-22 08:00:00,0.04185,0.04162,0.04191,0.04141
2023-03-22 16:00:00,0.04132,0.03975,0.04149,0.03956
2023-03-23 00:00:00,0.03953,0.03933,0.03958,0.03932
2023-03-23 08:00:00,0.03958,0.04078,0.04171,0.03958
2023-03-23 16:00:00,0.04384,0.04334,0.0477,0.04102
2023-03-24 00:00:00,0.04559,0.04489,0.04563,0.04443
2023-03-24 08:00:00,0.04313,0.0427,0.04317,0.04268
2023-03-24 16:00:00,0.04241,0.04182,0.04241,0.04151
2023-03-25 00:00:00,0.04217,0.04206,0.04443,0.04206
2023-03-25 08:00:00,0.04246,0.04268,0.04268,0.0424
2023-03-25 16:00:00,0.04176,0.04117,0.04218,0.04117
2023-03-26 00:00:00,0.04175,0.04191,0.04198,0.0417
2023-03-26 08:00:00,0.0419,0.04223,0.04223,0.04179
2023-03-26 16:00:00,0.04195,0.04258,0.04286,0.04186
2023-03-27 00:00:00,0.04326,0.04274,0.04326,0.04264
2023-03-27 08:00:00,0.04284,0.04272,0.04284,0.04246
2023-03-27 16:00:00,0.04104,0.04001,0.04117,0.04001
2023-03-28 00:00:00,0.04108,0.04108,0.04122,0.04033
2023-03-28 08:00:00,0.04093,0.04029,0.0418,0.04001
2023-03-28 16:00:00,0.04088,0.04081,0.04088,0.04005
2023-03-29 00:00:00,0.04069,0.04071,0.041,0.04051
2023-03-29 08:00:00,0.04048,0.0405,0.04203,0.04034
2023-03-29 16:00:00,0.04136,0.04151,0.04159,0.04057
2023-03-30 00:00:00,0.04215,0.04162,0.04233,0.04162
2023-03-30 08:00:00,0.04142,0.04265,0.04319,0.04142
2023-03-30 16:00:00,0.04238,0.04243,0.04244,0.04154
2023-03-31 00:00:00,0.04176,0.04124,0.04208,0.0411
2023-03-31 08:00:00,0.04141,0.04132,0.04146,0.04118
2023-03-31 16:00:00,0.04073,0.04062,0.04093,0.04056
2023-04-01 00:00:00,0.04051,0.04164,0.04167,0.0405
2023-04-01 08:00:00,0.04176,0.04162,0.04204,0.04148
2023-04-01 16:00:00,0.04258,0.0418,0.04302,0.04172
2023-04-02 00:00:00,0.04296,0.04314,0.04314,0.04287
2023-04-02 08:00:00,0.04329,0.04346,0.04347,0.04286
2023-04-02 16:00:00,0.04283,0.04184,0.04291,0.04181
2023-04-03 00:00:00,0.04203,0.04203,0.04342,0.04192
2023-04-03 08:00:00,0.04262,0.04262,0.04364,0.04255
2023-04-03 16:00:00,0.04294,0.04269,0.04339,0.04255
2023-04-04 00:00:00,0.04215,0.04234,0.04253,0.04206
2023-04-04 08:00:00,0.04263,0.04356,0.04368,0.04252
2023-04-04 16:00:00,0.04359,0.0454,0.04542,0.04308
2023-04-05 00:00:00,0.04469,0.04578,0.04616,0.0446
2023-04-05 08:00:00,0.04742,0.04531,0.04793,0.04525
2023-04-05 16:00:00,0.04414,0.04483,0.04518,0.04354
2023-04-06 00:00:00,0.04487,0.04589,0.04596,0.0448
2023-04-06 08:00:00,0.04593,0.04601,0.04637,0.04508
2023-04-06 16:00:00,0.04669,0.04763,0.04782,0.04664
2023-04-07 00:00:00,0.04734,0.04723,0.04744,0.04682
2023-04-07 08:00:00,0.04697,0.04906,0.0491,0.04683
2023-04-07 16:00:00,0.05031,0.04824,0.05186,0.04789
2023-04-08 00:00:00,0.04794,0.04788,0.04825,0.04691
2023-04-08 08:00:00,0.04843,0.0491,0.04916,0.0482
2023-04-08 16:00:00,0.05155,0.05315,0.05339,0.051
2023-04-09 00:00:00,0.05567,0.05764,0.05927,0.0534
2023-04-09 08:00:00,0.05654,0.056,0.05763,0.056
2023-04-09 16:00:00,0.05284,0.05171,0.05302,0.05025
2023-04-10 00:00:00,0.05106,0.05247,0.05369,0.05106
2023-04-10 08:00:00,0.05319,0.05308,0.05434,0.05199
2023-04-10 16:00:00,0.05368,0.05342,0.0555,0.05335
2023-04-11 00:00:00,0.05136,0.05108,0.05202,0.05011
2023-04-11 08:00:00,0.0503,0.05156,0.05156,0.05015
2023-04-11 16:00:00,0.05313,0.05295,0.05536,0.05196
2023-04-12 00:00:00,0.05272,0.05279,0.05379,0.0515
2023-04-12 08:00:00,0.05289,0.05411,0.05456,0.05283
2023-04-12 16:00:00,0.057,0.05877,0.06253,0.05637
2023-04-13 00:00:00,0.06201,0.06824,0.06995,0.062
2023-04-13 08:00:00,0.06578,0.07675,0.07905,0.06578
2023-04-13 16:00:00,0.07174,0.08051,0.084,0.0716
2023-04-14 00:00:00,0.08168,0.07625,0.08324,0.076
2023-04-14 08:00:00,0.07235,0.07592,0.081,0.0716
2023-04-14 16:00:00,0.07671,0.07323,0.07773,0.0719
2023-04-15 00:00:00,0.07427,0.07477,0.07645,0.07347
2023-04-15 08:00:00,0.07941,0.07657,0.08082,0.07644
2023-04-15 16:00:00,0.07732,0.07422,0.07936,0.07413
2023-04-16 00:00:00,0.07657,0.07809,0.0784,0.07654
2023-04-16 08:00:00,0.07824,0.07824,0.07839,0.0778
2023-04-16 16:00:00,0.07775,0.08289,0.0851,0.07755
2023-04-17 00:00:00,0.08911,0.08519,0.08932,0.08408
2023-04-17 08:00:00,0.08663,0.08433,0.0868,0.084
2023-04-17 16:00:00,0.08538,0.08683,0.08755,0.08347
2023-04-18 00:00:00,0.09337,0.105,0.10811,0.09281
2023-04-18 08:00:00,0.10714,0.11812,0.12,0.10527
2023-04-18 16:00:00,0.12574,0.13366,0.13798,0.11475
2023-04-19 00:00:00,0.14182,0.12854,0.1499,0.12545
2023-04-19 08:00:00,0.13066,0.11201,0.13109,0.1061
2023-04-19 16:00:00,0.11808,0.13619,0.14,0.11745
2023-04-20 00:00:00,0.11911,0.11801,0.12324,0.11212
2023-04-20 08:00:00,0.11687,0.11369,0.11699,0.11176
2023-04-20 16:00:00,0.10813,0.0936,0.10927,0.087
2023-04-21 00:00:00,0.09711,0.09392,0.09761,0.09392
2023-04-21 08:00:00,0.09108,0.08831,0.09443,0.08496
2023-04-21 16:00:00,0.08803,0.08098,0.0889,0.075
2023-04-22 00:00:00,0.07413,0.08856,0.08946,0.07405
2023-04-22 08:00:00,0.08716,0.088,0.09054,0.08208
2023-04-22 16:00:00,0.0868,0.08543,0.08969,0.08192
2023-04-23 00:00:00,0.09566,0.0954,0.10192,0.0927
2023-04-23 08:00:00,0.10348,0.10082,0.106,0.10046
2023-04-23 16:00:00,0.09846,0.09734,0.1016,0.09236
2023-04-24 00:00:00,0.09881,0.1011,0.102,0.09668
2023-04-24 08:00:00,0.09817,0.0954,0.09951,0.09232
2023-04-24 16:00:00,0.08985,0.09321,0.09325,0.08784
2023-04-25 00:00:00,0.09171,0.09135,0.09305,0.08945
2023-04-25 08:00:00,0.09021,0.0899,0.09139,0.0894
2023-04-25 16:00:00,0.08602,0.08863,0.08903,0.08478
2023-04-26 00:00:00,0.1035,0.10089,0.10923,0.10044
2023-04-26 08:00:00,0.11011,0.10463,0.11483,0.10368
2023-04-26 16:00:00,0.11067,0.0989,0.1112,0.09474
2023-04-27 00:00:00,0.10403,0.10861,0.10992,0.10371
2023-04-27 08:00:00,0.10831,0.10845,0.109,0.105
2023-04-27 16:00:00,0.10888,0.11631,0.12,0.10886
2023-04-28 00:00:00,0.11362,0.11375,0.12078,0.1124
2023-04-28 08:00:00,0.1146,0.11368,0.115,0.11005
2023-04-28 16:00:00,0.10403,0.10626,0.1111,0.10333
2023-04-29 00:00:00,0.10614,0.10775,0.1099,0.10595
2023-04-29 08:00:00,0.10565,0.10496,0.10681,0.10133
2023-04-29 16:00:00,0.10752,0.10551,0.10786,0.1051
2023-04-30 00:00:00,0.10517,0.10508,0.10548,0.105
2023-04-30 08:00:00,0.10903,0.10586,0.11198,0.10515
2023-04-30 16:00:00,0.1076,0.10533,0.108,0.105
2023-05-01 00:00:00,0.10149,0.10032,0.10204,0.10001
2023-05-01 08:00:00,0.10033,0.09628,0.10179,0.09628
2023-05-01 16:00:00,0.097,0.10091,0.1066,0.0955
2023-05-02 00:00:00,0.10053,0.09645,0.10199,0.09597
2023-05-02 08:00:00,0.09693,0.09507,0.09941,0.09502
2023-05-02 16:00:00,0.09249,0.09232,0.09326,0.09178
2023-05-03 00:00:00,0.09207,0.09116,0.09211,0.09111
2023-05-03 08:00:00,0.09202,0.08925,0.09269,0.08924
2023-05-03 16:00:00,0.08456,0.08453,0.08692,0.08065
2023-05-04 00:00:00,0.08997,0.0893,0.09085,0.08889
2023-05-04 08:00:00,0.08581,0.08443,0.08678,0.08431
2023-05-04 16:00:00,0.08618,0.08563,0.08727,0.08473
2023-05-05 00:00:00,0.08429,0.08334,0.08545,0.08246
2023-05-05 08:00:00,0.08412,0.08271,0.0863,0.08239
2023-05-05 16:00:00,0.08132,0.08133,0.08348,0.0812
2023-05-06 00:00:00,0.07874,0.07722,0.0799,0.07667
2023-05-06 08:00:00,0.07506,0.08088,0.0815,0.075
2023-05-06 16:00:00,0.08419,0.09052,0.09052,0.0837
2023-05-07 00:00:00,0.08429,0.08221,0.08429,0.08186
2023-05-07 08:00:00,0.08671,0.08594,0.09,0.0857
2023-05-07 16:00:00,0.0874,0.08681,0.08844,0.08644
2023-05-08 00:00:00,0.08691,0.08081,0.08754,0.08001
2023-05-08 08:00:00,0.07889,0.07866,0.0815,0.07836
2023-05-08 16:00:00,0.07944,0.07956,0.08087,0.07662
2023-05-09 00:00:00,0.082,0.07854,0.08238,0.07848
2023-05-09 08:00:00,0.07897,0.07811,0.07949,0.07784
2023-05-09 16:00:00,0.07708,0.07679,0.07719,0.07597
2023-05-10 00:00:00,0.07599,0.07584,0.07665,0.07562
2023-05-10 08:00:00,0.07693,0.07676,0.077,0.0763
2023-05-10 16:00:00,0.07957,0.07785,0.08048,0.0755
2023-05-11 00:00:00,0.07676,0.07519,0.07686,0.07497
2023-05-11 08:00:00,0.07209,0.07205,0.07227,0.07105
2023-05-11 16:00:00,0.07021,0.07316,0.07333,0.06999
2023-05-12 00:00:00,0.0762,0.07203,0.0768,0.07181
2023-05-12 08:00:00,0.07287,0.06983,0.07288,0.06922
2023-05-12 16:00:00,0.07187,0.07302,0.07397,0.07113
2023-05-13 00:00:00,0.0758,0.07491,0.07613,0.07433
2023-05-13 08:00:00,0.07405,0.07385,0.07487,0.07321
2023-05-13 16:00:00,0.07284,0.07414,0.07522,0.07232
2023-05-14 00:00:00,0.07385,0.0723,0.07387,0.07209
2023-05-14 08:00:00,0.07219,0.07258,0.07289,0.07149
2023-05-14 16:00:00,0.07294,0.07161,0.07334,0.07161
2023-05-15 00:00:00,0.07278,0.07172,0.073,0.07146
2023-05-15 08:00:00,0.07226,0.07254,0.07282,0.07182
2023-05-15 16:00:00,0.07641,0.0761,0.0799,0.076
2023-05-16 00:00:00,0.07486,0.07816,0.07817,0.07485
2023-05-16 08:00:00,0.07913,0.0805,0.0805,0.07665
2023-05-16 16:00:00,0.07898,0.07845,0.07998,0.07841
2023-05-17 00:00:00,0.07764,0.0765,0.07764,0.0764
2023-05-17 08:00:00,0.07677,0.075,0.07818,0.075
2023-05-17 16:00:00,0.07463,0.07411,0.07488,0.0741
2023-05-18 00:00:00,0.07472,0.07518,0.07531,0.07457
2023-05-18 08:00:00,0.07744,0.0754,0.07762,0.07518
2023-05-18 16:00:00,0.07418,0.07196,0.07427,0.07174
2023-05-19 00:00:00,0.07201,0.07335,0.07358,0.072
2023-05-19 08:00:00,0.07335,0.07354,0.0739,0.07335
2023-05-19 16:00:00,0.07336,0.07363,0.07371,0.07335
2023-05-20 00:00:00,0.07351,0.07371,0.07374,0.07338
2023-05-20 08:00:00,0.07369,0.0744,0.07479,0.0735
2023-05-20 16:00:00,0.07326,0.07254,0.07382,0.07231
2023-05-21 00:00:00,0.07217,0.0721,0.07257,0.072
2023-05-21 08:00:00,0.07208,0.07141,0.07211,0.0712
2023-05-21 16:00:00,0.0712,0.06982,0.07134,0.06925
2023-05-22 00:00:00,0.06942,0.06945,0.06985,0.06941
2023-05-22 08:00:00,0.07099,0.07458,0.0756,0.07062
2023-05-22 16:00:00,0.07388,0.07258,0.07483,0.07209
2023-05-23 00:00:00,0.07188,0.07333,0.07493,0.07183
2023-05-23 08:00:00,0.07673,0.07488,0.07754,0.07459
2023-05-23 16:00:00,0.07643,0.07428,0.07643,0.07411
2023-05-24 00:00:00,0.07299,0.0725,0.07385,0.0725
2023-05-24 08:00:00,0.07233,0.07329,0.0735,0.07212
2023-05-24 16:00:00,0.07098,0.07174,0.07197,0.07051
2023-05-25 00:00:00,0.07178,0.07101,0.07196,0.071
2023-05-25 08:00:00,0.07122,0.07061,0.0718,0.0705
2023-05-25 16:00:00,0.06942,0.07104,0.07148,0.06918
2023-05-26 00:00:00,0.06897,0.06911,0.06973,0.06858
2023-05-26 08:00:00,0.06882,0.06832,0.06934,0.06823
2023-05-26 16:00:00,0.06845,0.07012,0.07061,0.06844
2023-05-27 00:00:00,0.0693,0.06726,0.06937,0.06701
2023-05-27 08:00:00,0.06655,0.06665,0.06727,0.06606
2023-05-27 16:00:00,0.06508,0.06523,0.06572,0.06489
2023-05-28 00:00:00,0.06523,0.06599,0.06656,0.06495
2023-05-28 08:00:00,0.06735,0.07084,0.07219,0.06686
2023-05-28 16:00:00,0.07033,0.06906,0.07057,0.06895
2023-05-29 00:00:00,0.07181,0.0695,0.07274,0.06913
2023-05-29 08:00:00,0.07031,0.07162,0.07182,0.07011
2023-05-29 16:00:00,0.07106,0.07069,0.07252,0.0703
2023-05-30 00:00:00,0.07057,0.07045,0.0719,0.07011
2023-05-30 08:00:00,0.07008,0.07031,0.07052,0.07007
2023-05-30 16:00:00,0.07008,0.0701,0.07089,0.07
2023-05-31 00:00:00,0.07004,0.06956,0.07013,0.06948
2023-05-31 08:00:00,0.06943,0.06763,0.06951,0.06762
2023-05-31 16:00:00,0.06662,0.06712,0.06738,0.06632
2023-06-01 00:00:00,0.06629,0.0651,0.06646,0.06496
2023-06-01 08:00:00,0.06513,0.06604,0.06769,0.0651
2023-06-01 16:00:00,0.06658,0.06704,0.06832,0.0664
2023-06-02 00:00:00,0.06786,0.0671,0.06862,0.06699
2023-06-02 08:00:00,0.0687,0.06864,0.06884,0.068
2023-06-02 16:00:00,0.06921,0.07202,0.07218,0.06875
2023-06-03 00:00:00,0.07223,0.07031,0.07224,0.06983
2023-06-03 08:00:00,0.06941,0.06792,0.06951,0.06781
2023-06-03 16:00:00,0.06695,0.06722,0.06804,0.06667
2023-06-04 00:00:00,0.06668,0.06624,0.06673,0.06618
2023-06-04 08:00:00,0.06723,0.06813,0.06901,0.06701
2023-06-04 16:00:00,0.06746,0.06768,0.06781,0.06725
2023-06-05 00:00:00,0.06722,0.06737,0.06745,0.06704
2023-06-05 08:00:00,0.06755,0.06723,0.06759,0.0668
2023-06-05 16:00:00,0.06539,0.06598,0.06663,0.06499
2023-06-06 00:00:00,0.06439,0.06464,0.06502,0.06429
2023-06-06 08:00:00,0.06564,0.06589,0.06617,0.06564
2023-06-06 16:00:00,0.06732,0.07109,0.07144,0.06678
2023-06-07 00:00:00,0.06987,0.07092,0.072,0.06875
2023-06-07 08:00:00,0.06645,0.06699,0.06722,0.06601
2023-06-07 16:00:00,0.0681,0.06769,0.06864,0.06734
2023-06-08 00:00:00,0.06873,0.06726,0.06894,0.0671
2023-06-08 08:00:00,0.06726,0.06707,0.06749,0.06692
2023-06-08 16:00:00,0.06696,0.06736,0.06774,0.06681
2023-06-09 00:00:00,0.06734,0.06719,0.06759,0.06718
2023-06-09 08:00:00,0.0672,0.06736,0.06775,0.06718
2023-06-09 16:00:00,0.06789,0.06719,0.06817,0.06718
2023-06-10 00:00:00,0.06685,0.0661,0.06691,0.06602
2023-06-10 08:00:00,0.06429,0.06129,0.06429,0.0612
2023-06-10 16:00:00,0.0625,0.06218,0.06254,0.06152
2023-06-11 00:00:00,0.06304,0.06282,0.06307,0.06276
2023-06-11 08:00:00,0.06285,0.0636,0.06385,0.06262
2023-06-11 16:00:00,0.06371,0.06383,0.06565,0.06371
2023-06-12 00:00:00,0.06266,0.06131,0.06286,0.06125
2023-06-12 08:00:00,0.06025,0.06032,0.06169,0.0601
2023-06-12 16:00:00,0.06046,0.0608,0.06104,0.0604
2023-06-13 00:00:00,0.06061,0.06146,0.06154,0.06055
2023-06-13 08:00:00,0.0616,0.06158,0.06187,0.06085
2023-06-13 16:00:00,0.06102,0.06007,0.06128,0.05993
2023-06-14 00:00:00,0.05861,0.0566,0.05883,0.05611
2023-06-14 08:00:00,0.05724,0.05701,0.05816,0.05689
2023-06-14 16:00:00,0.05726,0.05617,0.05731,0.0559
2023-06-15 00:00:00,0.05515,0.05508,0.05534,0.055
2023-06-15 08:00:00,0.05504,0.05501,0.05519,0.055
2023-06-15 16:00:00,0.05526,0.05534,0.0563,0.05525
2023-06-16 00:00:00,0.05615,0.05569,0.05623,0.05552
2023-06-16 08:00:00,0.05622,0.05567,0.05637,0.05554
2023-06-16 16:00:00,0.05546,0.05811,0.05911,0.05529
2023-06-17 00:00:00,0.05963,0.05877,0.05991,0.05851
2023-06-17 08:00:00,0.06043,0.06076,0.06111,0.06019
2023-06-17 16:00:00,0.06078,0.06078,0.06088,0.05974
2023-06-18 00:00:00,0.06063,0.06094,0.06113,0.0606
2023-06-18 08:00:00,0.06108,0.05991,0.06123,0.05493
2023-06-18 16:00:00,0.06,0.06008,0.06037,0.05973
2023-06-19 00:00:00,0.05882,0.05859,0.05957,0.05848
2023-06-19 08:00:00,0.05828,0.05893,0.059,0.0582
2023-06-19 16:00:00,0.05831,0.05787,0.05858,0.05731
2023-06-20 00:00:00,0.05853,0.06057,0.06063,0.05851
2023-06-20 08:00:00,0.06057,0.05868,0.06117,0.0586
2023-06-20 16:00:00,0.05937,0.06174,0.06222,0.05937
2023-06-21 00:00:00,0.0605,0.06095,0.06189,0.06009
2023-06-21 08:00:00,0.0615,0.06244,0.06279,0.06123
2023-06-21 16:00:00,0.0626,0.06461,0.06474,0.0615
2023-06-22 00:00:00,0.06633,0.06719,0.0672,0.06569
2023-06-22 08:00:00,0.06966,0.06868,0.074,0.06829
2023-06-22 16:00:00,0.0703,0.07039,0.07141,0.07
2023-06-23 00:00:00,0.07041,0.06919,0.07047,0.0691
2023-06-23 08:00:00,0.06946,0.07089,0.07112,0.06903
2023-06-23 16:00:00,0.07115,0.07214,0.07222,0.07095
2023-06-24 00:00:00,0.07402,0.07329,0.07605,0.07223
2023-06-24 08:00:00,0.07132,0.07211,0.07262,0.0705
2023-06-24 16:00:00,0.07051,0.07173,0.07204,0.0699
2023-06-25 00:00:00,0.07325,0.07601,0.0762,0.07317
2023-06-25 08:00:00,0.07761,0.07531,0.07896,0.075
2023-06-25 16:00:00,0.07612,0.07761,0.07787,0.0761
2023-06-26 00:00:00,0.07711,0.07785,0.07855,0.07595
2023-06-26 08:00:00,0.07642,0.07812,0.07888,0.07621
2023-06-26 16:00:00,0.08041,0.08451,0.0855,0.07948
2023-06-27 00:00:00,0.08481,0.08226,0.0852,0.08152
2023-06-27 08:00:00,0.08145,0.08574,0.08705,0.08122
2023-06-27 16:00:00,0.0843,0.0844,0.08554,0.0803
2023-06-28 00:00:00,0.0831,0.08155,0.08351,0.08154
2023-06-28 08:00:00,0.07916,0.07669,0.07965,0.06559
2023-06-28 16:00:00,0.07226,0.06258,0.07227,0.05461
2023-06-29 00:00:00,0.06021,0.06386,0.064,0.06014
2023-06-29 08:00:00,0.06244,0.06448,0.065,0.06244
2023-06-29 16:00:00,0.06802,0.065,0.06905,0.065
2023-06-30 00:00:00,0.06747,0.06324,0.06774,0.06224
2023-06-30 08:00:00,0.06468,0.06165,0.06476,0.06165
2023-06-30 16:00:00,0.06009,0.06027,0.0614,0.05976
2023-07-01 00:00:00,0.06261,0.06323,0.06345,0.0618
2023-07-01 08:00:00,0.06345,0.06494,0.065,0.06338
2023-07-01 16:00:00,0.06344,0.06202,0.06349,0.0619
2023-07-02 00:00:00,0.06247,0.06261,0.06297,0.0623
2023-07-02 08:00:00,0.06284,0.06265,0.06386,0.0626
2023-07-02 16:00:00,0.06267,0.0627,0.06289,0.06261
2023-07-03 00:00:00,0.06429,0.06312,0.06448,0.0629
2023-07-03 08:00:00,0.0625,0.0621,0.06298,0.06201
2023-07-03 16:00:00,0.06294,0.06429,0.06496,0.06285
2023-07-04 00:00:00,0.06417,0.06361,0.06424,0.06352
2023-07-04 08:00:00,0.06385,0.06183,0.0639,0.06181
2023-07-04 16:00:00,0.06097,0.06123,0.062,0.0609
2023-07-05 00:00:00,0.06192,0.06191,0.06231,0.06165
2023-07-05 08:00:00,0.06229,0.06071,0.06264,0.06064
2023-07-05 16:00:00,0.05921,0.06014,0.06058,0.05858
2023-07-06 00:00:00,0.05903,0.059,0.05991,0.05836
2023-07-06 08:00:00,0.05884,0.05905,0.06012,0.05862
2023-07-06 16:00:00,0.05662,0.05837,0.05846,0.05622
2023-07-07 00:00:00,0.05663,0.0573,0.05819,0.0566
2023-07-07 08:00:00,0.05675,0.05636,0.05694,0.05627
2023-07-07 16:00:00,0.0562,0.05726,0.05791,0.05618
2023-07-08 00:00:00,0.05813,0.0587,0.06015,0.0581
2023-07-08 08:00:00,0.05927,0.05989,0.0611,0.05916
2023-07-08 16:00:00,0.05993,0.0584,0.06045,0.05822
2023-07-09 00:00:00,0.05805,0.0579,0.05835,0.0575
2023-07-09 08:00:00,0.05774,0.05883,0.05889,0.05757
2023-07-09 16:00:00,0.05783,0.05816,0.0585,0.05723
2023-07-10 00:00:00,0.05724,0.05811,0.05845,0.05695
2023-07-10 08:00:00,0.05737,0.05651,0.05805,0.0565
2023-07-10 16:00:00,0.05631,0.0573,0.05747,0.0559
2023-07-11 00:00:00,0.05661,0.05636,0.05717,0.05577
2023-07-11 08:00:00,0.05661,0.05604,0.05661,0.05593
2023-07-11 16:00:00,0.056,0.0547,0.0563,0.05404
2023-07-12 00:00:00,0.05549,0.05515,0.0562,0.0547
2023-07-12 08:00:00,0.0552,0.05609,0.05615,0.05502
2023-07-12 16:00:00,0.05656,0.05633,0.05744,0.05529
2023-07-13 00:00:00,0.05887,0.05813,0.05907,0.05777
2023-07-13 08:00:00,0.05738,0.05683,0.05763,0.05654
2023-07-13 16:00:00,0.058,0.06859,0.06966,0.05786
2023-07-14 00:00:00,0.06472,0.06383,0.06584,0.06361
2023-07-14 08:00:00,0.06251,0.0626,0.06278,0.061
2023-07-14 16:00:00,0.07001,0.06586,0.0732,0.06498
2023-07-15 00:00:00,0.06733,0.06438,0.0676,0.06359
2023-07-15 08:00:00,0.06682,0.06555,0.06682,0.06527
2023-07-15 16:00:00,0.06406,0.06523,0.06576,0.0636
2023-07-16 00:00:00,0.06328,0.06299,0.06366,0.06205
2023-07-16 08:00:00,0.06198,0.06204,0.06276,0.06145
2023-07-16 16:00:00,0.06269,0.06256,0.06346,0.06102
2023-07-17 00:00:00,0.06355,0.06303,0.06383,0.0625
2023-07-17 08:00:00,0.06207,0.06205,0.06378,0.06112
2023-07-17 16:00:00,0.06189,0.061,0.0621,0.06026
2023-07-18 00:00:00,0.05997,0.06189,0.06217,0.05955
2023-07-18 08:00:00,0.06155,0.05997,0.06156,0.05921
2023-07-18 16:00:00,0.06006,0.0587,0.06025,0.05857
2023-07-19 00:00:00,0.05919,0.06001,0.06026,0.05903
2023-07-19 08:00:00,0.05913,0.05983,0.06022,0.0591
2023-07-19 16:00:00,0.05825,0.05908,0.05942,0.0582
2023-07-20 00:00:00,0.05956,0.05981,0.06004,0.05931
2023-07-20 08:00:00,0.0608,0.06062,0.06091,0.05967
2023-07-20 16:00:00,0.05888,0.0591,0.06042,0.0585
2023-07-21 00:00:00,0.05925,0.05963,0.05966,0.05904
2023-07-21 08:00:00,0.05875,0.05731,0.05878,0.0571
2023-07-21 16:00:00,0.05768,0.0569,0.05801,0.05676
2023-07-22 00:00:00,0.05629,0.05782,0.05793,0.05588
2023-07-22 08:00:00,0.05814,0.05724,0.0582,0.05705
2023-07-22 16:00:00,0.05761,0.05852,0.06002,0.05739
2023-07-23 00:00:00,0.05819,0.05743,0.05819,0.0572
2023-07-23 08:00:00,0.05731,0.05742,0.05758,0.05719
2023-07-23 16:00:00,0.05798,0.05789,0.05881,0.05745
2023-07-24 00:00:00,0.05821,0.0577,0.05831,0.05753
2023-07-24 08:00:00,0.05751,0.0568,0.05763,0.05643
2023-07-24 16:00:00,0.05616,0.056,0.05647,0.056
2023-07-25 00:00:00,0.05589,0.05591,0.05636,0.05573
2023-07-25 08:00:00,0.05569,0.05596,0.05598,0.05554
2023-07-25 16:00:00,0.05629,0.05693,0.05748,0.05629
2023-07-26 00:00:00,0.05695,0.05697,0.05709,0.05649
2023-07-26 08:00:00,0.05706,0.0574,0.05745,0.05689
2023-07-26 16:00:00,0.05721,0.05657,0.05723,0.05646
2023-07-27 00:00:00,0.05631,0.05611,0.0564,0.05585
2023-07-27 08:00:00,0.05607,0.05619,0.0566,0.05605
2023-07-27 16:00:00,0.05586,0.05619,0.05629,0.05578
2023-07-28 00:00:00,0.05621,0.05638,0.05669,0.05601
2023-07-28 08:00:00,0.05588,0.05593,0.05612,0.05579
2023-07-28 16:00:00,0.05598,0.05597,0.0561,0.05578
2023-07-29 00:00:00,0.05708,0.05627,0.05759,0.05621
2023-07-29 08:00:00,0.05617,0.05615,0.05633,0.05593
2023-07-29 16:00:00,0.0561,0.05615,0.05621,0.056
2023-07-30 00:00:00,0.05617,0.05601,0.05624,0.056
2023-07-30 08:00:00,0.05609,0.05606,0.05623,0.05567
2023-07-30 16:00:00,0.05614,0.05573,0.05633,0.05571
2023-07-31 00:00:00,0.0559,0.05644,0.05647,0.0559
2023-07-31 08:00:00,0.05593,0.05612,0.05621,0.05579
2023-07-31 16:00:00,0.05489,0.05508,0.05549,0.05489
2023-08-01 00:00:00,0.05516,0.05493,0.0552,0.05493
2023-08-01 08:00:00,0.05538,0.05499,0.05538,0.05487
2023-08-01 16:00:00,0.05507,0.05506,0.05537,0.05488
2023-08-02 00:00:00,0.05565,0.055,0.05606,0.05487
2023-08-02 08:00:00,0.05494,0.05505,0.0556,0.05481
2023-08-02 16:00:00,0.05331,0.05309,0.05359,0.0529
2023-08-03 00:00:00,0.05255,0.05251,0.05291,0.0524
2023-08-03 08:00:00,0.05254,0.05289,0.05299,0.05245
2023-08-03 16:00:00,0.05307,0.0539,0.05399,0.05275
2023-08-04 00:00:00,0.05379,0.05377,0.05397,0.05368
2023-08-04 08:00:00,0.05354,0.05333,0.05359,0.05315
2023-08-04 16:00:00,0.05353,0.05246,0.05366,0.05207
2023-08-05 00:00:00,0.05249,0.05239,0.0526,0.05229
2023-08-05 08:00:00,0.05245,0.0531,0.0532,0.05241
2023-08-05 16:00:00,0.05253,0.0528,0.053,0.05235
2023-08-06 00:00:00,0.05288,0.05269,0.053,0.05262
2023-08-06 08:00:00,0.05278,0.05276,0.05289,0.05266
2023-08-06 16:00:00,0.05275,0.05276,0.05314,0.05269
2023-08-07 00:00:00,0.05247,0.05268,0.05305,0.05247
2023-08-07 08:00:00,0.05276,0.05308,0.05326,0.05239
2023-08-07 16:00:00,0.05218,0.05224,0.05261,0.05191
2023-08-08 00:00:00,0.05246,0.05235,0.0525,0.05233
2023-08-08 08:00:00,0.05259,0.05278,0.05285,0.05238
2023-08-08 16:00:00,0.05254,0.05292,0.05315,0.05251
2023-08-09 00:00:00,0.05284,0.05304,0.05311,0.05276
2023-08-09 08:00:00,0.05285,0.05265,0.05286,0.05255
2023-08-09 16:00:00,0.05292,0.05265,0.05315,0.05254
2023-08-10 00:00:00,0.05259,0.05254,0.05272,0.05254
2023-08-10 08:00:00,0.05238,0.05187,0.05252,0.05187
2023-08-10 16:00:00,0.05079,0.05223,0.05223,0.05078
2023-08-11 00:00:00,0.05279,0.05237,0.053,0.05232
2023-08-11 08:00:00,0.05235,0.05273,0.05289,0.05211
2023-08-11 16:00:00,0.053,0.05252,0.05301,0.05244
2023-08-12 00:00:00,0.05252,0.05303,0.0532,0.05243
2023-08-12 08:00:00,0.05253,0.05263,0.05288,0.05231
2023-08-12 16:00:00,0.05303,0.05436,0.05467,0.05299
2023-08-13 00:00:00,0.05697,0.05665,0.05707,0.05665
2023-08-13 08:00:00,0.05694,0.05659,0.05713,0.05659
2023-08-13 16:00:00,0.05483,0.05387,0.05486,0.05318
2023-08-14 00:00:00,0.05574,0.0552,0.05765,0.0551
2023-08-14 08:00:00,0.05491,0.05488,0.05498,0.05464
2023-08-14 16:00:00,0.05662,0.05571,0.05706,0.05554
2023-08-15 00:00:00,0.05611,0.0567,0.0569,0.05596
2023-08-15 08:00:00,0.05973,0.06072,0.06092,0.05875
2023-08-15 16:00:00,0.06004,0.05775,0.06033,0.05712
2023-08-16 00:00:00,0.0562,0.0597,0.05985,0.05614
2023-08-16 08:00:00,0.05765,0.05877,0.05939,0.0572
2023-08-16 16:00:00,0.05772,0.05731,0.05786,0.056
2023-08-17 00:00:00,0.05627,0.05672,0.05682,0.05579
2023-08-17 08:00:00,0.05647,0.05501,0.05652,0.05482
2023-08-17 16:00:00,0.05353,0.05297,0.05369,0.0525
2023-08-18 00:00:00,0.05213,0.05204,0.05288,0.05202
2023-08-18 08:00:00,0.0529,0.0522,0.053,0.05193
2023-08-18 16:00:00,0.05202,0.05234,0.05238,0.05196
2023-08-19 00:00:00,0.05282,0.0524,0.05293,0.0524
2023-08-19 08:00:00,0.05291,0.05446,0.05448,0.05282
2023-08-19 16:00:00,0.05572,0.05597,0.05624,0.05543
2023-08-20 00:00:00,0.05547,0.05522,0.05554,0.05518
2023-08-20 08:00:00,0.05372,0.05336,0.05384,0.05311
2023-08-20 16:00:00,0.0536,0.05449,0.05479,0.05356
2023-08-21 00:00:00,0.05457,0.0542,0.05457,0.05411
2023-08-21 08:00:00,0.05435,0.05421,0.05435,0.0534
2023-08-21 16:00:00,0.05382,0.054,0.05419,0.0536
2023-08-22 00:00:00,0.05369,0.05384,0.05387,0.05364
2023-08-22 08:00:00,0.05432,0.05457,0.05502,0.05432
2023-08-22 16:00:00,0.05462,0.05472,0.05596,0.05395
2023-08-23 00:00:00,0.0549,0.05444,0.05501,0.05444
2023-08-23 08:00:00,0.0545,0.05447,0.05466,0.05447
2023-08-23 16:00:00,0.05499,0.05702,0.05736,0.05498
2023-08-24 00:00:00,0.05522,0.05482,0.05544,0.05472
2023-08-24 08:00:00,0.05362,0.0535,0.05398,0.05332
2023-08-24 16:00:00,0.05337,0.05282,0.0534,0.05269
2023-08-25 00:00:00,0.05291,0.05333,0.05337,0.0527
2023-08-25 08:00:00,0.05296,0.05308,0.05328,0.05293
2023-08-25 16:00:00,0.05376,0.05371,0.05433,0.05365
2023-08-26 00:00:00,0.05388,0.0537,0.0539,0.05365
2023-08-26 08:00:00,0.05369,0.05361,0.05451,0.05361
2023-08-26 16:00:00,0.05323,0.05305,0.05331,0.05301
2023-08-27 00:00:00,0.05326,0.05302,0.05332,0.05301
2023-08-27 08:00:00,0.05293,0.0528,0.05317,0.0528
2023-08-27 16:00:00,0.05288,0.05293,0.05317,0.05284
2023-08-28 00:00:00,0.05281,0.05325,0.0533,0.0528
2023-08-28 08:00:00,0.05293,0.05254,0.05318,0.05233
2023-08-28 16:00:00,0.05253,0.05233,0.05302,0.05229
2023-08-29 00:00:00,0.05243,0.05276,0.05298,0.05238
2023-08-29 08:00:00,0.05258,0.05216,0.05258,0.052
2023-08-29 16:00:00,0.05401,0.05432,0.0552,0.05327
2023-08-30 00:00:00,0.05398,0.05338,0.05432,0.0533
2023-08-30 08:00:00,0.05331,0.05314,0.05353,0.05313
2023-08-30 16:00:00,0.05339,0.05296,0.05358,0.05264
2023-08-31 00:00:00,0.05287,0.0529,0.05343,0.05286
2023-08-31 08:00:00,0.05287,0.05305,0.05309,0.05283
2023-08-31 16:00:00,0.05283,0.05249,0.05287,0.05239
2023-09-01 00:00:00,0.05272,0.05242,0.05288,0.05238
2023-09-01 08:00:00,0.05223,0.05239,0.05249,0.05215
2023-09-01 16:00:00,0.0524,0.05251,0.05293,0.05227
2023-09-02 00:00:00,0.05216,0.05194,0.05226,0.05192
2023-09-02 08:00:00,0.05184,0.05154,0.05184,0.05143
2023-09-02 16:00:00,0.0516,0.0521,0.0527,0.05159
2023-09-03 00:00:00,0.05198,0.05181,0.05201,0.0518
2023-09-03 08:00:00,0.05184,0.05187,0.05195,0.05181
2023-09-03 16:00:00,0.05194,0.05186,0.05204,0.0518
2023-09-04 00:00:00,0.05195,0.05146,0.05195,0.05132
2023-09-04 08:00:00,0.05169,0.05145,0.05187,0.05143
2023-09-04 16:00:00,0.05197,0.05186,0.05229,0.05181
2023-09-05 00:00:00,0.0518,0.05146,0.05202,0.0514
2023-09-05 08:00:00,0.05135,0.05154,0.05169,0.05121
2023-09-05 16:00:00,0.05167,0.0524,0.0525,0.05167
2023-09-06 00:00:00,0.05498,0.05394,0.05499,0.05392
2023-09-06 08:00:00,0.05297,0.05374,0.05392,0.05297
2023-09-06 16:00:00,0.05344,0.05403,0.05431,0.05324
2023-09-07 00:00:00,0.05402,0.05378,0.05417,0.05372
2023-09-07 08:00:00,0.05338,0.05309,0.0535,0.05309
2023-09-07 16:00:00,0.05342,0.05308,0.05394,0.05303
2023-09-08 00:00:00,0.05416,0.05473,0.05474,0.05394
2023-09-08 08:00:00,0.05672,0.05669,0.0577,0.05652
2023-09-08 16:00:00,0.05675,0.05751,0.05755,0.05612
2023-09-09 00:00:00,0.062,0.0638,0.06474,0.06169
2023-09-09 08:00:00,0.0642,0.06361,0.06487,0.06338
2023-09-09 16:00:00,0.06264,0.06235,0.0632,0.06106
2023-09-10 00:00:00,0.06298,0.06228,0.06312,0.06206
2023-09-10 08:00:00,0.06104,0.05982,0.06119,0.05858
2023-09-10 16:00:00,0.05913,0.05712,0.05913,0.0561
2023-09-11 00:00:00,0.05739,0.05718,0.05749,0.05713
2023-09-11 08:00:00,0.05673,0.05513,0.05678,0.05505
2023-09-11 16:00:00,0.05526,0.05512,0.05647,0.05509
2023-09-12 00:00:00,0.05485,0.05485,0.05503,0.0545
2023-09-12 08:00:00,0.05452,0.05535,0.05538,0.05378
2023-09-12 16:00:00,0.05767,0.05682,0.05795,0.05576
2023-09-13 00:00:00,0.05706,0.05712,0.05715,0.05679
2023-09-13 08:00:00,0.05827,0.05777,0.0587,0.05717
2023-09-13 16:00:00,0.05788,0.05717,0.05794,0.05669
2023-09-14 00:00:00,0.05663,0.05584,0.05669,0.05581
2023-09-14 08:00:00,0.05522,0.05559,0.05568,0.05522
2023-09-14 16:00:00,0.05681,0.0573,0.05732,0.05678
2023-09-15 00:00:00,0.05599,0.0557,0.056,0.0554
2023-09-15 08:00:00,0.05534,0.05521,0.05629,0.05518
2023-09-15 16:00:00,0.05568,0.05532,0.05593,0.05527
2023-09-16 00:00:00,0.05581,0.05614,0.0563,0.05578
2023-09-16 08:00:00,0.05625,0.05536,0.0563,0.05533
2023-09-16 16:00:00,0.05567,0.05578,0.05588,0.05552
2023-09-17 00:00:00,0.05517,0.05506,0.05522,0.05488
2023-09-17 08:00:00,0.05524,0.05504,0.05546,0.055
2023-09-17 16:00:00,0.05519,0.05538,0.05551,0.05513
2023-09-18 00:00:00,0.05489,0.05464,0.05493,0.05418
2023-09-18 08:00:00,0.05469,0.05533,0.05603,0.05461
2023-09-18 16:00:00,0.05696,0.05622,0.05728,0.05609
2023-09-19 00:00:00,0.05601,0.0561,0.05628,0.0557
2023-09-19 08:00:00,0.05641,0.05604,0.05654,0.05592
2023-09-19 16:00:00,0.05579,0.05698,0.05711,0.05537
2023-09-20 00:00:00,0.05793,0.05784,0.05793,0.05751
2023-09-20 08:00:00,0.05767,0.05731,0.05767,0.0565
2023-09-20 16:00:00,0.05774,0.05767,0.05799,0.05761
2023-09-21 00:00:00,0.05789,0.05813,0.05814,0.05777
2023-09-21 08:00:00,0.05793,0.05768,0.05859,0.0576
2023-09-21 16:00:00,0.05638,0.05741,0.05746,0.05593
2023-09-22 00:00:00,0.05814,0.05805,0.05848,0.058
2023-09-22 08:00:00,0.05864,0.06016,0.0607,0.05863
2023-09-22 16:00:00,0.06225,0.06167,0.06243,0.06124
2023-09-23 00:00:00,0.06365,0.06363,0.065,0.06351
2023-09-23 08:00:00,0.06201,0.06354,0.06445,0.06174
2023-09-23 16:00:00,0.06737,0.06652,0.06894,0.06632
2023-09-24 00:00:00,0.06721,0.06659,0.06726,0.06601
2023-09-24 08:00:00,0.06654,0.06746,0.06771,0.06648
2023-09-24 16:00:00,0.06782,0.06713,0.0684,0.0668
2023-09-25 00:00:00,0.06232,0.06498,0.06548,0.06206
2023-09-25 08:00:00,0.06,0.06057,0.06091,0.05757
2023-09-25 16:00:00,0.05989,0.06085,0.0635,0.05974
2023-09-26 00:00:00,0.06162,0.05945,0.06167,0.05892
2023-09-26 08:00:00,0.05929,0.05978,0.06002,0.05895
2023-09-26 16:00:00,0.05963,0.06044,0.0649,0.05954
2023-09-27 00:00:00,0.06243,0.06194,0.06248,0.06147
2023-09-27 08:00:00,0.06224,0.06297,0.063,0.06217
2023-09-27 16:00:00,0.06285,0.06154,0.06285,0.06098
2023-09-28 00:00:00,0.06335,0.06244,0.064,0.0618
2023-09-28 08:00:00,0.06374,0.06251,0.06441,0.06233
2023-09-28 16:00:00,0.0627,0.06256,0.06398,0.06244
2023-09-29 00:00:00,0.06065,0.06107,0.06219,0.0606
2023-09-29 08:00:00,0.06037,0.05952,0.06066,0.0594
2023-09-29 16:00:00,0.0572,0.05726,0.05844,0.05713
2023-09-30 00:00:00,0.05786,0.05793,0.05803,0.05718
2023-09-30 08:00:00,0.05883,0.05818,0.05887,0.05782
2023-09-30 16:00:00,0.05745,0.05716,0.05768,0.057
2023-10-01 00:00:00,0.05693,0.05684,0.05728,0.05651
2023-10-01 08:00:00,0.05676,0.05813,0.05838,0.05671
2023-10-01 16:00:00,0.05804,0.05813,0.05875,0.0579
2023-10-02 00:00:00,0.05905,0.0594,0.05953,0.0589
2023-10-02 08:00:00,0.05945,0.05814,0.05945,0.058
2023-10-02 16:00:00,0.05762,0.05695,0.05775,0.05635
2023-10-03 00:00:00,0.05726,0.05731,0.05765,0.0565
2023-10-03 08:00:00,0.05776,0.05729,0.05776,0.05682
2023-10-03 16:00:00,0.05703,0.05703,0.05727,0.057
2023-10-04 00:00:00,0.05644,0.05629,0.05644,0.05616
2023-10-04 08:00:00,0.05619,0.05356,0.05646,0.05318
2023-10-04 16:00:00,0.0536,0.05401,0.05406,0.05271
2023-10-05 00:00:00,0.05226,0.05267,0.0528,0.05225
2023-10-05 08:00:00,0.05254,0.05279,0.05285,0.0525
2023-10-05 16:00:00,0.05163,0.04729,0.05166,0.04545
2023-10-06 00:00:00,0.0487,0.04755,0.04875,0.04681
2023-10-06 08:00:00,0.049,0.04978,0.05015,0.04862
2023-10-06 16:00:00,0.05094,0.0509,0.05107,0.0506
2023-10-07 00:00:00,0.04811,0.04732,0.04841,0.04691
2023-10-07 08:00:00,0.04824,0.0484,0.04858,0.04809
2023-10-07 16:00:00,0.04824,0.04748,0.04837,0.04737
2023-10-08 00:00:00,0.04784,0.04743,0.04784,0.04738
2023-10-08 08:00:00,0.0476,0.04783,0.04836,0.04757
2023-10-08 16:00:00,0.04767,0.04776,0.04782,0.04748
2023-10-09 00:00:00,0.04792,0.04796,0.04796,0.04783
2023-10-09 08:00:00,0.04766,0.04754,0.04865,0.04748
2023-10-09 16:00:00,0.04761,0.04612,0.04761,0.04576
2023-10-10 00:00:00,0.04408,0.04417,0.04433,0.04399
2023-10-10 08:00:00,0.04429,0.04285,0.04438,0.04283
2023-10-10 16:00:00,0.04311,0.04388,0.044,0.04295
2023-10-11 00:00:00,0.04467,0.04588,0.046,0.04463
2023-10-11 08:00:00,0.0445,0.04323,0.0445,0.043
2023-10-11 16:00:00,0.04207,0.04312,0.04329,0.04177
2023-10-12 00:00:00,0.04162,0.04162,0.04167,0.04142
2023-10-12 08:00:00,0.04107,0.04022,0.04117,0.04001
2023-10-12 16:00:00,0.04013,0.04036,0.04046,0.04005
2023-10-13 00:00:00,0.04003,0.04004,0.04026,0.03995
2023-10-13 08:00:00,0.04018,0.04006,0.04092,0.03984
2023-10-13 16:00:00,0.04033,0.04009,0.04034,0.04
2023-10-14 00:00:00,0.04002,0.03992,0.04007,0.03987
2023-10-14 08:00:00,0.03996,0.04006,0.04022,0.03996
2023-10-14 16:00:00,0.04009,0.03987,0.04026,0.03905
2023-10-15 00:00:00,0.03983,0.03973,0.03989,0.03956
2023-10-15 08:00:00,0.03939,0.03927,0.03948,0.03916
2023-10-15 16:00:00,0.03919,0.03932,0.03938,0.03847
2023-10-16 00:00:00,0.04008,0.03982,0.04016,0.03978
2023-10-16 08:00:00,0.04003,0.0404,0.04058,0.04002
2023-10-16 16:00:00,0.0405,0.04024,0.04055,0.04007
2023-10-17 00:00:00,0.03969,0.03946,0.03969,0.03946
2023-10-17 08:00:00,0.0391,0.0394,0.03949,0.03908
2023-10-17 16:00:00,0.03933,0.03956,0.03959,0.0393
2023-10-18 00:00:00,0.0394,0.0394,0.03956,0.03932
2023-10-18 08:00:00,0.0394,0.03971,0.03971,0.03933
2023-10-18 16:00:00,0.04037,0.0415,0.0466,0.04037
2023-10-19 00:00:00,0.04177,0.0414,0.0418,0.0414
2023-10-19 08:00:00,0.04161,0.04175,0.04282,0.04146
2023-10-19 16:00:00,0.04153,0.0416,0.0416,0.04131
2023-10-20 00:00:00,0.04186,0.04217,0.04251,0.04163
2023-10-20 08:00:00,0.04258,0.043,0.04358,0.04258
2023-10-20 16:00:00,0.04425,0.04402,0.04434,0.04401
2023-10-21 00:00:00,0.04403,0.0441,0.04417,0.04396
2023-10-21 08:00:00,0.04409,0.04535,0.04547,0.04409
2023-10-21 16:00:00,0.0444,0.04242,0.0444,0.04242
2023-10-22 00:00:00,0.04209,0.04225,0.04237,0.04209
2023-10-22 08:00:00,0.04204,0.04146,0.04221,0.04131
2023-10-22 16:00:00,0.04141,0.04118,0.04151,0.04116
2023-10-23 00:00:00,0.04291,0.04333,0.04333,0.04226
2023-10-23 08:00:00,0.04281,0.04229,0.04285,0.04192
2023-10-23 16:00:00,0.04175,0.04276,0.04276,0.04152
2023-10-24 00:00:00,0.04384,0.0445,0.04474,0.04342
2023-10-24 08:00:00,0.04506,0.0441,0.0451,0.04348
2023-10-24 16:00:00,0.0492,0.04479,0.05094,0.0445
2023-10-25 00:00:00,0.04466,0.04465,0.04488,0.04442
2023-10-25 08:00:00,0.04542,0.04591,0.04604,0.04452
2023-10-25 16:00:00,0.04834,0.04715,0.04842,0.04681
2023-10-26 00:00:00,0.04552,0.04504,0.04582,0.04494
2023-10-26 08:00:00,0.04503,0.04558,0.046,0.04495
2023-10-26 16:00:00,0.0451,0.04486,0.04557,0.0447
2023-10-27 00:00:00,0.04372,0.04423,0.04458,0.04358
2023-10-27 08:00:00,0.04242,0.0421,0.04311,0.04182
2023-10-27 16:00:00,0.04197,0.04118,0.04214,0.03994
2023-10-28 00:00:00,0.04148,0.04153,0.04191,0.04132
2023-10-28 08:00:00,0.04202,0.04147,0.04244,0.04135
2023-10-28 16:00:00,0.04095,0.04102,0.04131,0.04077
2023-10-29 00:00:00,0.04104,0.04091,0.04119,0.04088
2023-10-29 08:00:00,0.04104,0.04091,0.04111,0.04085
2023-10-29 16:00:00,0.0411,0.04199,0.04255,0.04098
2023-10-30 00:00:00,0.04315,0.04192,0.04324,0.04186
2023-10-30 08:00:00,0.04135,0.04181,0.04215,0.0411
2023-10-30 16:00:00,0.04164,0.042,0.04202,0.04128
2023-10-31 00:00:00,0.04142,0.04122,0.04173,0.04122
2023-10-31 08:00:00,0.04242,0.0424,0.04333,0.0423
2023-10-31 16:00:00,0.0421,0.0422,0.04246,0.04161
2023-11-01 00:00:00,0.04263,0.04141,0.04263,0.04135
2023-11-01 08:00:00,0.04183,0.04116,0.04183,0.04115
2023-11-01 16:00:00,0.04074,0.04105,0.04119,0.0402
2023-11-02 00:00:00,0.04242,0.04049,0.04254,0.03985
2023-11-02 08:00:00,0.04113,0.04113,0.04159,0.041
2023-11-02 16:00:00,0.04062,0.04163,0.04184,0.04057
2023-11-03 00:00:00,0.04144,0.04091,0.0415,0.04071
2023-11-03 08:00:00,0.04093,0.04097,0.04166,0.04067
2023-11-03 16:00:00,0.04155,0.04197,0.04301,0.04155
2023-11-04 00:00:00,0.04417,0.04444,0.04444,0.04371
2023-11-04 08:00:00,0.04395,0.04326,0.04395,0.04308
2023-11-04 16:00:00,0.0424,0.04231,0.04264,0.04226
2023-11-05 00:00:00,0.04226,0.04286,0.04294,0.04201
2023-11-05 08:00:00,0.0431,0.0428,0.04328,0.0424
2023-11-05 16:00:00,0.04378,0.04567,0.04591,0.04373
2023-11-06 00:00:00,0.0444,0.04469,0.04475,0.04386
2023-11-06 08:00:00,0.04459,0.04443,0.04543,0.04415
2023-11-06 16:00:00,0.04656,0.04697,0.04698,0.04609
2023-11-07 00:00:00,0.04722,0.0487,0.04936,0.04722
2023-11-07 08:00:00,0.04872,0.04625,0.04881,0.04582
2023-11-07 16:00:00,0.04648,0.04735,0.04752,0.04608
2023-11-08 00:00:00,0.04778,0.04682,0.04778,0.04669
2023-11-08 08:00:00,0.04361,0.04497,0.04535,0.041
2023-11-08 16:00:00,0.04271,0.04408,0.04408,0.0425
2023-11-09 00:00:00,0.0431,0.04346,0.04364,0.04292
2023-11-09 08:00:00,0.04303,0.0437,0.0444,0.04303
2023-11-09 16:00:00,0.04305,0.0416,0.0432,0.04119
2023-11-10 00:00:00,0.0412,0.04172,0.0419,0.04106
2023-11-10 08:00:00,0.04232,0.04248,0.04306,0.042
2023-11-10 16:00:00,0.04268,0.04316,0.044,0.0424
2023-11-11 00:00:00,0.04431,0.04521,0.04558,0.044
2023-11-11 08:00:00,0.04583,0.04411,0.046,0.044
2023-11-11 16:00:00,0.04337,0.04366,0.04388,0.04334
2023-11-12 00:00:00,0.04373,0.04351,0.04373,0.0431
2023-11-12 08:00:00,0.04469,0.04446,0.04555,0.0444
2023-11-12 16:00:00,0.04543,0.04493,0.04546,0.04463
2023-11-13 00:00:00,0.04506,0.04553,0.04598,0.045
2023-11-13 08:00:00,0.04566,0.04478,0.0462,0.04446
2023-11-13 16:00:00,0.04464,0.04413,0.04477,0.04399
2023-11-14 00:00:00,0.04374,0.04328,0.04374,0.04328
2023-11-14 08:00:00,0.04313,0.04373,0.04383,0.0428
2023-11-14 16:00:00,0.04424,0.04486,0.046,0.04424
2023-11-15 00:00:00,0.0449,0.04405,0.04498,0.044
2023-11-15 08:00:00,0.044,0.04402,0.04458,0.04385
2023-11-15 16:00:00,0.0442,0.04515,0.04522,0.04379
2023-11-16 00:00:00,0.04701,0.0474,0.0474,0.04669
2023-11-16 08:00:00,0.04596,0.04728,0.0473,0.04574
2023-11-16 16:00:00,0.04789,0.04645,0.048,0.045
2023-11-17 00:00:00,0.04616,0.04549,0.04625,0.04529
2023-11-17 08:00:00,0.04516,0.04621,0.0466,0.0451
2023-11-17 16:00:00,0.04463,0.04594,0.04605,0.0441
2023-11-18 00:00:00,0.04665,0.04768,0.0478,0.0464
2023-11-18 08:00:00,0.04609,0.04546,0.04615,0.04528
2023-11-18 16:00:00,0.04624,0.04611,0.0467,0.0458
2023-11-19 00:00:00,0.0455,0.04534,0.04553,0.0452
2023-11-19 08:00:00,0.04611,0.04648,0.04693,0.04604
2023-11-19 16:00:00,0.04704,0.04715,0.04725,0.04689
2023-11-20 00:00:00,0.04692,0.04672,0.04708,0.0466
2023-11-20 08:00:00,0.04637,0.04679,0.04698,0.0458
2023-11-20 16:00:00,0.04739,0.05175,0.056,0.04727
2023-11-21 00:00:00,0.05522,0.05494,0.05593,0.05378
2023-11-21 08:00:00,0.05397,0.05298,0.05397,0.05205
2023-11-21 16:00:00,0.0523,0.05155,0.05233,0.04896
2023-11-22 00:00:00,0.04955,0.04991,0.05086,0.04926
2023-11-22 08:00:00,0.05222,0.05475,0.05502,0.05222
2023-11-22 16:00:00,0.05767,0.05946,0.06,0.05605
2023-11-23 00:00:00,0.05934,0.05801,0.0595,0.05799
2023-11-23 08:00:00,0.05881,0.06077,0.06396,0.05881
2023-11-23 16:00:00,0.05935,0.06011,0.06186,0.05888
2023-11-24 00:00:00,0.05823,0.0587,0.05911,0.058
2023-11-24 08:00:00,0.05988,0.06025,0.06094,0.0595
2023-11-24 16:00:00,0.05867,0.05857,0.05947,0.058
2023-11-25 00:00:00,0.05718,0.05602,0.05719,0.056
2023-11-25 08:00:00,0.05705,0.05558,0.05735,0.05533
2023-11-25 16:00:00,0.05491,0.0559,0.05605,0.05416
2023-11-26 00:00:00,0.05643,0.056,0.05643,0.056
2023-11-26 08:00:00,0.05477,0.05459,0.05549,0.0545
2023-11-26 16:00:00,0.05351,0.05467,0.05597,0.05301
2023-11-27 00:00:00,0.05377,0.05427,0.05471,0.05365
2023-11-27 08:00:00,0.05234,0.05131,0.05332,0.0512
2023-11-27 16:00:00,0.04999,0.05109,0.05232,0.0498
2023-11-28 00:00:00,0.05044,0.05062,0.05151,0.05034
2023-11-28 08:00:00,0.04974,0.05148,0.05173,0.04952
2023-11-28 16:00:00,0.05204,0.05278,0.05353,0.05154
2023-11-29 00:00:00,0.0509,0.05126,0.05153,0.05046
2023-11-29 08:00:00,0.05126,0.05016,0.05179,0.05014
2023-11-29 16:00:00,0.05357,0.05492,0.05605,0.05312
2023-11-30 00:00:00,0.05662,0.05533,0.057,0.055
2023-11-30 08:00:00,0.05449,0.05516,0.0562,0.05412
2023-11-30 16:00:00,0.0529,0.05175,0.05355,0.05149
2023-12-01 00:00:00,0.05283,0.05368,0.054,0.05239
2023-12-01 08:00:00,0.05248,0.05364,0.055,0.05194
2023-12-01 16:00:00,0.05383,0.05283,0.0543,0.052
2023-12-02 00:00:00,0.05437,0.0559,0.05596,0.05424
2023-12-02 08:00:00,0.05504,0.05557,0.05595,0.05441
2023-12-02 16:00:00,0.05803,0.05759,0.05803,0.05573
2023-12-03 00:00:00,0.0587,0.05772,0.059,0.057
2023-12-03 08:00:00,0.05698,0.05621,0.05708,0.05565
2023-12-03 16:00:00,0.05632,0.05498,0.05671,0.05463
2023-12-04 00:00:00,0.05346,0.05235,0.05402,0.05169
2023-12-04 08:00:00,0.05121,0.05068,0.0548,0.05
2023-12-04 16:00:00,0.0521,0.05255,0.05255,0.051
2023-12-05 00:00:00,0.05166,0.05037,0.05182,0.05
2023-12-05 08:00:00,0.05094,0.05051,0.0511,0.05046
2023-12-05 16:00:00,0.04882,0.04871,0.04957,0.048
2023-12-06 00:00:00,0.05079,0.05136,0.05217,0.05002
2023-12-06 08:00:00,0.05174,0.05221,0.0525,0.051
2023-12-06 16:00:00,0.052,0.05158,0.053,0.0502
2023-12-07 00:00:00,0.05109,0.051,0.0516,0.05045
2023-12-07 08:00:00,0.05232,0.05161,0.053,0.05079
2023-12-07 16:00:00,0.05222,0.05165,0.05249,0.05105
2023-12-08 00:00:00,0.05125,0.04985,0.05259,0.04824
2023-12-08 08:00:00,0.05025,0.04955,0.051,0.04787
2023-12-08 16:00:00,0.05056,0.05042,0.05128,0.05002
2023-12-09 00:00:00,0.05047,0.0513,0.0516,0.04977
2023-12-09 08:00:00,0.05167,0.05141,0.05255,0.05053
2023-12-09 16:00:00,0.05099,0.05123,0.05157,0.05055
2023-12-10 00:00:00,0.05057,0.05008,0.05082,0.0493
2023-12-10 08:00:00,0.04993,0.05009,0.05012,0.04975
2023-12-10 16:00:00,0.04937,0.04944,0.04953,0.049
2023-12-11 00:00:00,0.05006,0.04904,0.05008,0.04851
2023-12-11 08:00:00,0.048,0.04622,0.048,0.04601
2023-12-11 16:00:00,0.04682,0.0446,0.04709,0.04415
2023-12-12 00:00:00,0.04452,0.04599,0.04636,0.04403
2023-12-12 08:00:00,0.04574,0.05241,0.05446,0.04454
2023-12-12 16:00:00,0.05004,0.04704,0.05099,0.04704
2023-12-13 00:00:00,0.0484,0.04872,0.049,0.04711
2023-12-13 08:00:00,0.05023,0.04903,0.05072,0.04839
2023-12-13 16:00:00,0.04784,0.04737,0.04886,0.04649
2023-12-14 00:00:00,0.04891,0.04806,0.049,0.04752
2023-12-14 08:00:00,0.04848,0.04839,0.04887,0.04752
2023-12-14 16:00:00,0.04819,0.04735,0.04891,0.047
2023-12-15 00:00:00,0.0475,0.04728,0.04823,0.04695
2023-12-15 08:00:00,0.04681,0.04799,0.048,0.04657
2023-12-15 16:00:00,0.04601,0.0458,0.04675,0.04541
2023-12-16 00:00:00,0.0447,0.04517,0.046,0.04403
2023-12-16 08:00:00,0.04494,0.04563,0.04563,0.04476
2023-12-16 16:00:00,0.04575,0.04486,0.04586,0.04412
2023-12-17 00:00:00,0.04263,0.04352,0.04386,0.04202
2023-12-17 08:00:00,0.04354,0.04368,0.04556,0.04313
2023-12-17 16:00:00,0.04362,0.0445,0.04494,0.04276
2023-12-18 00:00:00,0.04183,0.04228,0.04264,0.04141
2023-12-18 08:00:00,0.03981,0.04,0.041,0.039
2023-12-18 16:00:00,0.04076,0.04139,0.04145,0.03989
2023-12-19 00:00:00,0.04176,0.042,0.04216,0.04104
2023-12-19 08:00:00,0.04283,0.04292,0.04292,0.04193
2023-12-19 20:00:00,0.04237,0.04242,0.04292,0.04147
2023-12-20 04:00:00,0.04589,0.04698,0.047,0.04401
2023-12-20 12:00:00,0.04439,0.04628,0.04686,0.04439
2023-12-20 20:00:00,0.04642,0.04761,0.04772,0.04512
2023-12-21 04:00:00,0.0481,0.04884,0.049,0.04746
2023-12-21 12:00:00,0.04644,0.04629,0.04756,0.04602
2023-12-21 20:00:00,0.04663,0.04739,0.04782,0.04623
2023-12-22 04:00:00,0.04647,0.046,0.047,0.046
2023-12-22 12:00:00,0.04527,0.045,0.04575,0.045
2023-12-22 20:00:00,0.04649,0.04651,0.04691,0.04589
2023-12-23 04:00:00,0.04539,0.04585,0.04622,0.04507
2023-12-23 12:00:00,0.04537,0.04594,0.04594,0.045
2023-12-23 20:00:00,0.0451,0.04497,0.04574,0.0443
2023-12-24 04:00:00,0.04364,0.04346,0.0444,0.04311
2023-12-24 12:00:00,0.04381,0.04412,0.04467,0.04354
2023-12-24 20:00:00,0.04472,0.04584,0.046,0.044
2023-12-25 04:00:00,0.04563,0.04633,0.04725,0.04528
2023-12-25 12:00:00,0.04563,0.04641,0.04692,0.04536
2023-12-25 20:00:00,0.04629,0.04692,0.04758,0.04522
2023-12-26 04:00:00,0.04683,0.04585,0.04683,0.04472
2023-12-26 12:00:00,0.04542,0.04438,0.04599,0.0442
2023-12-26 20:00:00,0.04528,0.04474,0.04581,0.044
2023-12-27 04:00:00,0.04441,0.04528,0.04586,0.04403
2023-12-27 12:00:00,0.04582,0.04577,0.04616,0.045
2023-12-27 20:00:00,0.04607,0.04724,0.048,0.04605
2023-12-28 04:00:00,0.04748,0.04799,0.04843,0.047
2023-12-28 12:00:00,0.04688,0.0452,0.04707,0.045
2023-12-28 20:00:00,0.04522,0.04581,0.046,0.04421
2023-12-29 04:00:00,0.04634,0.04534,0.04673,0.0453
2023-12-29 12:00:00,0.04487,0.04432,0.04513,0.04401
2023-12-29 20:00:00,0.04465,0.04458,0.04485,0.04418
2023-12-30 04:00:00,0.0444,0.04406,0.04532,0.04402
2023-12-30 12:00:00,0.04367,0.04424,0.0444,0.04342
2023-12-30 20:00:00,0.04315,0.04206,0.044,0.04206
2023-12-31 04:00:00,0.04203,0.04212,0.04255,0.041
2023-12-31 12:00:00,0.04244,0.04298,0.043,0.04136
2023-12-31 20:00:00,0.04266,0.04147,0.04303,0.04075
2024-01-01 04:00:00,0.04086,0.04172,0.042,0.04083
2024-01-01 12:00:00,0.04226,0.04147,0.04283,0.04143
2024-01-01 20:00:00,0.0415,0.04284,0.04294,0.04114
2024-01-02 04:00:00,0.04251,0.04212,0.04284,0.04102
2024-01-02 12:00:00,0.04235,0.04213,0.04373,0.04196
2024-01-02 20:00:00,0.04179,0.04227,0.04275,0.04139
2024-01-03 04:00:00,0.04236,0.04264,0.04409,0.04228
2024-01-03 12:00:00,0.04154,0.04062,0.04157,0.03911
2024-01-03 20:00:00,0.04079,0.0412,0.04133,0.04017
2024-01-04 04:00:00,0.04137,0.04085,0.04227,0.0406
2024-01-04 12:00:00,0.04092,0.04206,0.0424,0.04085
2024-01-04 20:00:00,0.04285,0.04406,0.0453,0.04282
2024-01-05 04:00:00,0.04312,0.04293,0.04343,0.04267
2024-01-05 12:00:00,0.04323,0.04214,0.04438,0.04212
2024-01-05 20:00:00,0.04243,0.04293,0.04295,0.04211
2024-01-06 04:00:00,0.04204,0.042,0.04226,0.0411
2024-01-06 12:00:00,0.04205,0.04267,0.04301,0.04204
2024-01-06 20:00:00,0.04239,0.0422,0.04244,0.04199
2024-01-07 04:00:00,0.04236,0.04261,0.04278,0.0423
2024-01-07 12:00:00,0.04175,0.04129,0.0425,0.04115
2024-01-07 20:00:00,0.04105,0.04119,0.04159,0.04023
2024-01-08 04:00:00,0.0403,0.04074,0.04103,0.04
2024-01-08 12:00:00,0.04066,0.04027,0.04108,0.04
2024-01-09 00:00:00,0.04187,0.04068,0.04196,0.04058
2024-01-09 08:00:00,0.04062,0.04065,0.04083,0.04031