File: data/kucoin_4h/XRD-USDT.csv
Date,Open,Close,High,Low
2023-06-25 16:00:00,0.07612,0.07761,0.07787,0.0761
2023-06-26 00:00:00,0.07711,0.07785,0.07855,0.07595
2023-06-26 08:00:00,0.07642,0.07812,0.07888,0.07621
2023-06-26 16:00:00,0.08041,0.08451,0.0855,0.07948
2023-06-27 00:00:00,0.08481,0.08226,0.0852,0.08152
2023-06-27 08:00:00,0.08145,0.08574,0.08705,0.08122
2023-06-27 16:00:00,0.0843,0.0844,0.08554,0.0803
2023-06-28 00:00:00,0.0831,0.08155,0.08351,0.08154
2023-06-28 08:00:00,0.07916,0.07669,0.07965,0.06559
2023-06-28 16:00:00,0.07226,0.06258,0.07227,0.05461
2023-06-29 00:00:00,0.06021,0.06386,0.064,0.06014
2023-06-29 08:00:00,0.06244,0.06448,0.065,0.06244
2023-06-29 16:00:00,0.06802,0.065,0.06905,0.065
2023-06-30 00:00:00,0.06747,0.06324,0.06774,0.06224
2023-06-30 08:00:00,0.06468,0.06165,0.06476,0.06165
2023-06-30 16:00:00,0.06009,0.06027,0.0614,0.05976
2023-07-01 00:00:00,0.06261,0.06323,0.06345,0.0618
2023-07-01 08:00:00,0.06345,0.06494,0.065,0.06338
2023-07-01 16:00:00,0.06344,0.06202,0.06349,0.0619
2023-07-02 00:00:00,0.06247,0.06261,0.06297,0.0623
2023-07-02 08:00:00,0.06284,0.06265,0.06386,0.0626
2023-07-02 16:00:00,0.06267,0.0627,0.06289,0.06261
2023-07-03 00:00:00,0.06429,0.06312,0.06448,0.0629
2023-07-03 08:00:00,0.0625,0.0621,0.06298,0.06201
2023-07-03 16:00:00,0.06294,0.06429,0.06496,0.06285
2023-07-04 00:00:00,0.06417,0.06361,0.06424,0.06352
2023-07-04 08:00:00,0.06385,0.06183,0.0639,0.06181
2023-07-04 16:00:00,0.06097,0.06123,0.062,0.0609
2023-07-05 00:00:00,0.06192,0.06191,0.06231,0.06165
2023-07-05 08:00:00,0.06229,0.06071,0.06264,0.06064
2023-07-05 16:00:00,0.05921,0.06014,0.06058,0.05858
2023-07-06 00:00:00,0.05903,0.059,0.05991,0.05836
2023-07-06 08:00:00,0.05884,0.05905,0.06012,0.05862
2023-07-06 16:00:00,0.05662,0.05837,0.05846,0.05622
2023-07-07 00:00:00,0.05663,0.0573,0.05819,0.0566
2023-07-07 08:00:00,0.05675,0.05636,0.05694,0.05627
2023-07-07 16:00:00,0.0562,0.05726,0.05791,0.05618
2023-07-08 00:00:00,0.05813,0.0587,0.06015,0.0581
2023-07-08 08:00:00,0.05927,0.05989,0.0611,0.05916
2023-07-08 16:00:00,0.05993,0.0584,0.06045,0.05822
2023-07-09 00:00:00,0.05805,0.0579,0.05835,0.0575
2023-07-09 08:00:00,0.05774,0.05883,0.05889,0.05757
2023-07-09 16:00:00,0.05783,0.05816,0.0585,0.05723
2023-07-10 00:00:00,0.05724,0.05811,0.05845,0.05695
2023-07-10 08:00:00,0.05737,0.05651,0.05805,0.0565
2023-07-10 16:00:00,0.05631,0.0573,0.05747,0.0559
2023-07-11 00:00:00,0.05661,0.05636,0.05717,0.05577
2023-07-11 08:00:00,0.05661,0.05604,0.05661,0.05593
2023-07-11 16:00:00,0.056,0.0547,0.0563,0.05404
2023-07-12 00:00:00,0.05549,0.05515,0.0562,0.0547
2023-07-12 08:00:00,0.0552,0.05609,0.05615,0.05502
2023-07-12 16:00:00,0.05656,0.05633,0.05744,0.05529
2023-07-13 00:00:00,0.05887,0.05813,0.05907,0.05777
2023-07-13 08:00:00,0.05738,0.05683,0.05763,0.05654
2023-07-13 16:00:00,0.058,0.06859,0.06966,0.05786
2023-07-14 00:00:00,0.06472,0.06383,0.06584,0.06361
2023-07-14 08:00:00,0.06251,0.0626,0.06278,0.061
2023-07-14 16:00:00,0.07001,0.06586,0.0732,0.06498
2023-07-15 00:00:00,0.06733,0.06438,0.0676,0.06359
2023-07-15 08:00:00,0.06682,0.06555,0.06682,0.06527
2023-07-15 16:00:00,0.06406,0.06523,0.06576,0.0636
2023-07-16 00:00:00,0.06328,0.06299,0.06366,0.06205
2023-07-16 08:00:00,0.06198,0.06204,0.06276,0.06145
2023-07-16 16:00:00,0.06269,0.06256,0.06346,0.06102
2023-07-17 00:00:00,0.06355,0.06303,0.06383,0.0625
2023-07-17 08:00:00,0.06207,0.06205,0.06378,0.06112
2023-07-17 16:00:00,0.06189,0.061,0.0621,0.06026
2023-07-18 00:00:00,0.05997,0.06189,0.06217,0.05955
2023-07-18 08:00:00,0.06155,0.05997,0.06156,0.05921
2023-07-18 16:00:00,0.06006,0.0587,0.06025,0.05857
2023-07-19 00:00:00,0.05919,0.06001,0.06026,0.05903
2023-07-19 08:00:00,0.05913,0.05983,0.06022,0.0591
2023-07-19 16:00:00,0.05825,0.05908,0.05942,0.0582
2023-07-20 00:00:00,0.05956,0.05981,0.06004,0.05931
2023-07-20 08:00:00,0.0608,0.06062,0.06091,0.05967
2023-07-20 16:00:00,0.05888,0.0591,0.06042,0.0585
2023-07-21 00:00:00,0.05925,0.05963,0.05966,0.05904
2023-07-21 08:00:00,0.05875,0.05731,0.05878,0.0571
2023-07-21 16:00:00,0.05768,0.0569,0.05801,0.05676
2023-07-22 00:00:00,0.05629,0.05782,0.05793,0.05588
2023-07-22 08:00:00,0.05814,0.05724,0.0582,0.05705
2023-07-22 16:00:00,0.05761,0.05852,0.06002,0.05739
2023-07-23 00:00:00,0.05819,0.05743,0.05819,0.0572
2023-07-23 08:00:00,0.05731,0.05742,0.05758,0.05719
2023-07-23 16:00:00,0.05798,0.05789,0.05881,0.05745
2023-07-24 00:00:00,0.05821,0.0577,0.05831,0.05753
2023-07-24 08:00:00,0.05751,0.0568,0.05763,0.05643
2023-07-24 16:00:00,0.05616,0.056,0.05647,0.056
2023-07-25 00:00:00,0.05589,0.05591,0.05636,0.05573
2023-07-25 08:00:00,0.05569,0.05596,0.05598,0.05554
2023-07-25 16:00:00,0.05629,0.05693,0.05748,0.05629
2023-07-26 00:00:00,0.05695,0.05697,0.05709,0.05649
2023-07-26 08:00:00,0.05706,0.0574,0.05745,0.05689
2023-07-26 16:00:00,0.05721,0.05657,0.05723,0.05646
2023-07-27 00:00:00,0.05631,0.05611,0.0564,0.05585
2023-07-27 08:00:00,0.05607,0.05619,0.0566,0.05605
2023-07-27 16:00:00,0.05586,0.05619,0.05629,0.05578
2023-07-28 00:00:00,0.05621,0.05638,0.05669,0.05601
2023-07-28 08:00:00,0.05588,0.05593,0.05612,0.05579
2023-07-28 16:00:00,0.05598,0.05597,0.0561,0.05578
2023-07-29 00:00:00,0.05708,0.05627,0.05759,0.05621
2023-07-29 08:00:00,0.05617,0.05615,0.05633,0.05593
2023-07-29 16:00:00,0.0561,0.05615,0.05621,0.056
2023-07-30 00:00:00,0.05617,0.05601,0.05624,0.056
2023-07-30 08:00:00,0.05609,0.05606,0.05623,0.05567
2023-07-30 16:00:00,0.05614,0.05573,0.05633,0.05571
2023-07-31 00:00:00,0.0559,0.05644,0.05647,0.0559
2023-07-31 08:00:00,0.05593,0.05612,0.05621,0.05579
2023-07-31 16:00:00,0.05489,0.05508,0.05549,0.05489
2023-08-01 00:00:00,0.05516,0.05493,0.0552,0.05493
2023-08-01 08:00:00,0.05538,0.05499,0.05538,0.05487
2023-08-01 16:00:00,0.05507,0.05506,0.05537,0.05488
2023-08-02 00:00:00,0.05565,0.055,0.05606,0.05487
2023-08-02 08:00:00,0.05494,0.05505,0.0556,0.05481
2023-08-02 16:00:00,0.05331,0.05309,0.05359,0.0529
2023-08-03 00:00:00,0.05255,0.05251,0.05291,0.0524
2023-08-03 08:00:00,0.05254,0.05289,0.05299,0.05245
2023-08-03 16:00:00,0.05307,0.0539,0.05399,0.05275
2023-08-04 00:00:00,0.05379,0.05377,0.05397,0.05368
2023-08-04 08:00:00,0.05354,0.05333,0.05359,0.05315
2023-08-04 16:00:00,0.05353,0.05246,0.05366,0.05207
2023-08-05 00:00:00,0.05249,0.05239,0.0526,0.05229
2023-08-05 08:00:00,0.05245,0.0531,0.0532,0.05241
2023-08-05 16:00:00,0.05253,0.0528,0.053,0.05235
2023-08-06 00:00:00,0.05288,0.05269,0.053,0.05262
2023-08-06 08:00:00,0.05278,0.05276,0.05289,0.05266
2023-08-06 16:00:00,0.05275,0.05276,0.05314,0.05269
2023-08-07 00:00:00,0.05247,0.05268,0.05305,0.05247
2023-08-07 08:00:00,0.05276,0.05308,0.05326,0.05239
2023-08-07 16:00:00,0.05218,0.05224,0.05261,0.05191
2023-08-08 00:00:00,0.05246,0.05235,0.0525,0.05233
2023-08-08 08:00:00,0.05259,0.05278,0.05285,0.05238
2023-08-08 16:00:00,0.05254,0.05292,0.05315,0.05251
2023-08-09 00:00:00,0.05284,0.05304,0.05311,0.05276
2023-08-09 08:00:00,0.05285,0.05265,0.05286,0.05255
2023-08-09 16:00:00,0.05292,0.05265,0.05315,0.05254
2023-08-10 00:00:00,0.05259,0.05254,0.05272,0.05254
2023-08-10 08:00:00,0.05238,0.05187,0.05252,0.05187
2023-08-10 16:00:00,0.05079,0.05223,0.05223,0.05078
2023-08-11 00:00:00,0.05279,0.05237,0.053,0.05232
2023-08-11 08:00:00,0.05235,0.05273,0.05289,0.05211
2023-08-11 16:00:00,0.053,0.05252,0.05301,0.05244
2023-08-12 00:00:00,0.05252,0.05303,0.0532,0.05243
2023-08-12 08:00:00,0.05253,0.05263,0.05288,0.05231
2023-08-12 16:00:00,0.05303,0.05436,0.05467,0.05299
2023-08-13 00:00:00,0.05697,0.05665,0.05707,0.05665
2023-08-13 08:00:00,0.05694,0.05659,0.05713,0.05659
2023-08-13 16:00:00,0.05483,0.05387,0.05486,0.05318
2023-08-14 00:00:00,0.05574,0.0552,0.05765,0.0551
2023-08-14 08:00:00,0.05491,0.05488,0.05498,0.05464
2023-08-14 16:00:00,0.05662,0.05571,0.05706,0.05554
2023-08-15 00:00:00,0.05611,0.0567,0.0569,0.05596
2023-08-15 08:00:00,0.05973,0.06072,0.06092,0.05875
2023-08-15 16:00:00,0.06004,0.05775,0.06033,0.05712
2023-08-16 00:00:00,0.0562,0.0597,0.05985,0.05614
2023-08-16 08:00:00,0.05765,0.05877,0.05939,0.0572
2023-08-16 16:00:00,0.05772,0.05731,0.05786,0.056
2023-08-17 00:00:00,0.05627,0.05672,0.05682,0.05579
2023-08-17 08:00:00,0.05647,0.05501,0.05652,0.05482
2023-08-17 16:00:00,0.05353,0.05297,0.05369,0.0525
2023-08-18 00:00:00,0.05213,0.05204,0.05288,0.05202
2023-08-18 08:00:00,0.0529,0.0522,0.053,0.05193
2023-08-18 16:00:00,0.05202,0.05234,0.05238,0.05196
2023-08-19 00:00:00,0.05282,0.0524,0.05293,0.0524
2023-08-19 08:00:00,0.05291,0.05446,0.05448,0.05282
2023-08-19 16:00:00,0.05572,0.05597,0.05624,0.05543
2023-08-20 00:00:00,0.05547,0.05522,0.05554,0.05518
2023-08-20 08:00:00,0.05372,0.05336,0.05384,0.05311
2023-08-20 16:00:00,0.0536,0.05449,0.05479,0.05356
2023-08-21 00:00:00,0.05457,0.0542,0.05457,0.05411
2023-08-21 08:00:00,0.05435,0.05421,0.05435,0.0534
2023-08-21 16:00:00,0.05382,0.054,0.05419,0.0536
2023-08-22 00:00:00,0.05369,0.05384,0.05387,0.05364
2023-08-22 08:00:00,0.05432,0.05457,0.05502,0.05432
2023-08-22 16:00:00,0.05462,0.05472,0.05596,0.05395
2023-08-23 00:00:00,0.0549,0.05444,0.05501,0.05444
2023-08-23 08:00:00,0.0545,0.05447,0.05466,0.05447
2023-08-23 16:00:00,0.05499,0.05702,0.05736,0.05498
2023-08-24 00:00:00,0.05522,0.05482,0.05544,0.05472
2023-08-24 08:00:00,0.05362,0.0535,0.05398,0.05332
2023-08-24 16:00:00,0.05337,0.05282,0.0534,0.05269
2023-08-25 00:00:00,0.05291,0.05333,0.05337,0.0527
2023-08-25 08:00:00,0.05296,0.05308,0.05328,0.05293
2023-08-25 16:00:00,0.05376,0.05371,0.05433,0.05365
2023-08-26 00:00:00,0.05388,0.0537,0.0539,0.05365
2023-08-26 08:00:00,0.05369,0.05361,0.05451,0.05361
2023-08-26 16:00:00,0.05323,0.05305,0.05331,0.05301
2023-08-27 00:00:00,0.05326,0.05302,0.05332,0.05301
2023-08-27 08:00:00,0.05293,0.0528,0.05317,0.0528
2023-08-27 16:00:00,0.05288,0.05293,0.05317,0.05284
2023-08-28 00:00:00,0.05281,0.05325,0.0533,0.0528
2023-08-28 08:00:00,0.05293,0.05254,0.05318,0.05233
2023-08-28 16:00:00,0.05253,0.05233,0.05302,0.05229
2023-08-29 00:00:00,0.05243,0.05276,0.05298,0.05238
2023-08-29 08:00:00,0.05258,0.05216,0.05258,0.052
2023-08-29 16:00:00,0.05401,0.05432,0.0552,0.05327
2023-08-30 00:00:00,0.05398,0.05338,0.05432,0.0533
2023-08-30 08:00:00,0.05331,0.05314,0.05353,0.05313
2023-08-30 16:00:00,0.05339,0.05296,0.05358,0.05264
2023-08-31 00:00:00,0.05287,0.0529,0.05343,0.05286
2023-08-31 08:00:00,0.05287,0.05305,0.05309,0.05283
2023-08-31 16:00:00,0.05283,0.05249,0.05287,0.05239
2023-09-01 00:00:00,0.05272,0.05242,0.05288,0.05238
2023-09-01 08:00:00,0.05223,0.05239,0.05249,0.05215
2023-09-01 16:00:00,0.0524,0.05251,0.05293,0.05227
2023-09-02 00:00:00,0.05216,0.05194,0.05226,0.05192
2023-09-02 08:00:00,0.05184,0.05154,0.05184,0.05143
2023-09-02 16:00:00,0.0516,0.0521,0.0527,0.05159
2023-09-03 00:00:00,0.05198,0.05181,0.05201,0.0518
2023-09-03 08:00:00,0.05184,0.05187,0.05195,0.05181
2023-09-03 16:00:00,0.05194,0.05186,0.05204,0.0518
2023-09-04 00:00:00,0.05195,0.05146,0.05195,0.05132
2023-09-04 08:00:00,0.05169,0.05145,0.05187,0.05143
2023-09-04 16:00:00,0.05197,0.05186,0.05229,0.05181
2023-09-05 00:00:00,0.0518,0.05146,0.05202,0.0514
2023-09-05 08:00:00,0.05135,0.05154,0.05169,0.05121
2023-09-05 16:00:00,0.05167,0.0524,0.0525,0.05167
2023-09-06 00:00:00,0.05498,0.05394,0.05499,0.05392
2023-09-06 08:00:00,0.05297,0.05374,0.05392,0.05297
2023-09-06 16:00:00,0.05344,0.05403,0.05431,0.05324
2023-09-07 00:00:00,0.05402,0.05378,0.05417,0.05372
2023-09-07 08:00:00,0.05338,0.05309,0.0535,0.05309
2023-09-07 16:00:00,0.05342,0.05308,0.05394,0.05303
2023-09-08 00:00:00,0.05416,0.05473,0.05474,0.05394
2023-09-08 08:00:00,0.05672,0.05669,0.0577,0.05652
2023-09-08 16:00:00,0.05675,0.05751,0.05755,0.05612
2023-09-09 00:00:00,0.062,0.0638,0.06474,0.06169
2023-09-09 08:00:00,0.0642,0.06361,0.06487,0.06338
2023-09-09 16:00:00,0.06264,0.06235,0.0632,0.06106
2023-09-10 00:00:00,0.06298,0.06228,0.06312,0.06206
2023-09-10 08:00:00,0.06104,0.05982,0.06119,0.05858
2023-09-10 16:00:00,0.05913,0.05712,0.05913,0.0561
2023-09-11 00:00:00,0.05739,0.05718,0.05749,0.05713
2023-09-11 08:00:00,0.05673,0.05513,0.05678,0.05505
2023-09-11 16:00:00,0.05526,0.05512,0.05647,0.05509
2023-09-12 00:00:00,0.05485,0.05485,0.05503,0.0545
2023-09-12 08:00:00,0.05452,0.05535,0.05538,0.05378
2023-09-12 16:00:00,0.05767,0.05682,0.05795,0.05576
2023-09-13 00:00:00,0.05706,0.05712,0.05715,0.05679
2023-09-13 08:00:00,0.05827,0.05777,0.0587,0.05717
2023-09-13 16:00:00,0.05788,0.05717,0.05794,0.05669
2023-09-14 00:00:00,0.05663,0.05584,0.05669,0.05581
2023-09-14 08:00:00,0.05522,0.05559,0.05568,0.05522
2023-09-14 16:00:00,0.05681,0.0573,0.05732,0.05678
2023-09-15 00:00:00,0.05599,0.0557,0.056,0.0554
2023-09-15 08:00:00,0.05534,0.05521,0.05629,0.05518
2023-09-15 16:00:00,0.05568,0.05532,0.05593,0.05527
2023-09-16 00:00:00,0.05581,0.05614,0.0563,0.05578
2023-09-16 08:00:00,0.05625,0.05536,0.0563,0.05533
2023-09-16 16:00:00,0.05567,0.05578,0.05588,0.05552
2023-09-17 00:00:00,0.05517,0.05506,0.05522,0.05488
2023-09-17 08:00:00,0.05524,0.05504,0.05546,0.055
2023-09-17 16:00:00,0.05519,0.05538,0.05551,0.05513
2023-09-18 00:00:00,0.05489,0.05464,0.05493,0.05418
2023-09-18 08:00:00,0.05469,0.05533,0.05603,0.05461
2023-09-18 16:00:00,0.05696,0.05622,0.05728,0.05609
2023-09-19 00:00:00,0.05601,0.0561,0.05628,0.0557
2023-09-19 08:00:00,0.05641,0.05604,0.05654,0.05592
2023-09-19 16:00:00,0.05579,0.05698,0.05711,0.05537
2023-09-20 00:00:00,0.05793,0.05784,0.05793,0.05751
2023-09-20 08:00:00,0.05767,0.05731,0.05767,0.0565
2023-09-20 16:00:00,0.05774,0.05767,0.05799,0.05761
2023-09-21 00:00:00,0.05789,0.05813,0.05814,0.05777
2023-09-21 08:00:00,0.05793,0.05768,0.05859,0.0576
2023-09-21 16:00:00,0.05638,0.05741,0.05746,0.05593
2023-09-22 00:00:00,0.05814,0.05805,0.05848,0.058
2023-09-22 08:00:00,0.05864,0.06016,0.0607,0.05863
2023-09-22 16:00:00,0.06225,0.06167,0.06243,0.06124
2023-09-23 00:00:00,0.06365,0.06363,0.065,0.06351
2023-09-23 08:00:00,0.06201,0.06354,0.06445,0.06174
2023-09-23 16:00:00,0.06737,0.06652,0.06894,0.06632
2023-09-24 00:00:00,0.06721,0.06659,0.06726,0.06601
2023-09-24 08:00:00,0.06654,0.06746,0.06771,0.06648
2023-09-24 16:00:00,0.06782,0.06713,0.0684,0.0668
2023-09-25 00:00:00,0.06232,0.06498,0.06548,0.06206
2023-09-25 08:00:00,0.06,0.06057,0.06091,0.05757
2023-09-25 16:00:00,0.05989,0.06085,0.0635,0.05974
2023-09-26 00:00:00,0.06162,0.05945,0.06167,0.05892
2023-09-26 08:00:00,0.05929,0.05978,0.06002,0.05895
2023-09-26 16:00:00,0.05963,0.06044,0.0649,0.05954
2023-09-27 00:00:00,0.06243,0.06194,0.06248,0.06147
2023-09-27 08:00:00,0.06224,0.06297,0.063,0.06217
2023-09-27 16:00:00,0.06285,0.06154,0.06285,0.06098
2023-09-28 00:00:00,0.06335,0.06244,0.064,0.0618
2023-09-28 08:00:00,0.06374,0.06251,0.06441,0.06233
2023-09-28 16:00:00,0.0627,0.06256,0.06398,0.06244
2023-09-29 00:00:00,0.06065,0.06107,0.06219,0.0606
2023-09-29 08:00:00,0.06037,0.05952,0.06066,0.0594
2023-09-29 16:00:00,0.0572,0.05726,0.05844,0.05713
2023-09-30 00:00:00,0.05786,0.05793,0.05803,0.05718
2023-09-30 08:00:00,0.05883,0.05818,0.05887,0.05782
2023-09-30 16:00:00,0.05745,0.05716,0.05768,0.057
2023-10-01 00:00:00,0.05693,0.05684,0.05728,0.05651
2023-10-01 08:00:00,0.05676,0.05813,0.05838,0.05671
2023-10-01 16:00:00,0.05804,0.05813,0.05875,0.0579
2023-10-02 00:00:00,0.05905,0.0594,0.05953,0.0589
2023-10-02 08:00:00,0.05945,0.05814,0.05945,0.058
2023-10-02 16:00:00,0.05762,0.05695,0.05775,0.05635
2023-10-03 00:00:00,0.05726,0.05731,0.05765,0.0565
2023-10-03 08:00:00,0.05776,0.05729,0.05776,0.05682
2023-10-03 16:00:00,0.05703,0.05703,0.05727,0.057
2023-10-04 00:00:00,0.05644,0.05629,0.05644,0.05616
2023-10-04 08:00:00,0.05619,0.05356,0.05646,0.05318
2023-10-04 16:00:00,0.0536,0.05401,0.05406,0.05271
2023-10-05 00:00:00,0.05226,0.05267,0.0528,0.05225
2023-10-05 08:00:00,0.05254,0.05279,0.05285,0.0525
2023-10-05 16:00:00,0.05163,0.04729,0.05166,0.04545
2023-10-06 00:00:00,0.0487,0.04755,0.04875,0.04681
2023-10-06 08:00:00,0.049,0.04978,0.05015,0.04862
2023-10-06 16:00:00,0.05094,0.0509,0.05107,0.0506
2023-10-07 00:00:00,0.04811,0.04732,0.04841,0.04691
2023-10-07 08:00:00,0.04824,0.0484,0.04858,0.04809
2023-10-07 16:00:00,0.04824,0.04748,0.04837,0.04737
2023-10-08 00:00:00,0.04784,0.04743,0.04784,0.04738
2023-10-08 08:00:00,0.0476,0.04783,0.04836,0.04757
2023-10-08 16:00:00,0.04767,0.04776,0.04782,0.04748
2023-10-09 00:00:00,0.04792,0.04796,0.04796,0.04783
2023-10-09 08:00:00,0.04766,0.04754,0.04865,0.04748
2023-10-09 16:00:00,0.04761,0.04612,0.04761,0.04576
2023-10-10 00:00:00,0.04408,0.04417,0.04433,0.04399
2023-10-10 08:00:00,0.04429,0.04285,0.04438,0.04283
2023-10-10 16:00:00,0.04311,0.04388,0.044,0.04295
2023-10-11 00:00:00,0.04467,0.04588,0.046,0.04463
2023-10-11 08:00:00,0.0445,0.04323,0.0445,0.043
2023-10-11 16:00:00,0.04207,0.04312,0.04329,0.04177
2023-10-12 00:00:00,0.04162,0.04162,0.04167,0.04142
2023-10-12 08:00:00,0.04107,0.04022,0.04117,0.04001
2023-10-12 16:00:00,0.04013,0.04036,0.04046,0.04005
2023-10-13 00:00:00,0.04003,0.04004,0.04026,0.03995
2023-10-13 08:00:00,0.04018,0.04006,0.04092,0.03984
2023-10-13 16:00:00,0.04033,0.04009,0.04034,0.04
2023-10-14 00:00:00,0.04002,0.03992,0.04007,0.03987
2023-10-14 08:00:00,0.03996,0.04006,0.04022,0.03996
2023-10-14 16:00:00,0.04009,0.03987,0.04026,0.03905
2023-10-15 00:00:00,0.03983,0.03973,0.03989,0.03956
2023-10-15 08:00:00,0.03939,0.03927,0.03948,0.03916
2023-10-15 16:00:00,0.03919,0.03932,0.03938,0.03847
2023-10-16 00:00:00,0.04008,0.03982,0.04016,0.03978
2023-10-16 08:00:00,0.04003,0.0404,0.04058,0.04002
2023-10-16 16:00:00,0.0405,0.04024,0.04055,0.04007
2023-10-17 00:00:00,0.03969,0.03946,0.03969,0.03946
2023-10-17 08:00:00,0.0391,0.0394,0.03949,0.03908
2023-10-17 16:00:00,0.03933,0.03956,0.03959,0.0393
2023-10-18 00:00:00,0.0394,0.0394,0.03956,0.03932
2023-10-18 08:00:00,0.0394,0.03971,0.03971,0.03933
2023-10-18 16:00:00,0.04037,0.0415,0.0466,0.04037
2023-10-19 00:00:00,0.04177,0.0414,0.0418,0.0414
2023-10-19 08:00:00,0.04161,0.04175,0.04282,0.04146
2023-10-19 16:00:00,0.04153,0.0416,0.0416,0.04131
2023-10-20 00:00:00,0.04186,0.04217,0.04251,0.04163
2023-10-20 08:00:00,0.04258,0.043,0.04358,0.04258
2023-10-20 16:00:00,0.04425,0.04402,0.04434,0.04401
2023-10-21 00:00:00,0.04403,0.0441,0.04417,0.04396
2023-10-21 08:00:00,0.04409,0.04535,0.04547,0.04409
2023-10-21 16:00:00,0.0444,0.04242,0.0444,0.04242
2023-10-22 00:00:00,0.04209,0.04225,0.04237,0.04209
2023-10-22 08:00:00,0.04204,0.04146,0.04221,0.04131
2023-10-22 16:00:00,0.04141,0.04118,0.04151,0.04116
2023-10-23 00:00:00,0.04291,0.04333,0.04333,0.04226
2023-10-23 08:00:00,0.04281,0.04229,0.04285,0.04192
2023-10-23 16:00:00,0.04175,0.04276,0.04276,0.04152
2023-10-24 00:00:00,0.04384,0.0445,0.04474,0.04342
2023-10-24 08:00:00,0.04506,0.0441,0.0451,0.04348
2023-10-24 16:00:00,0.0492,0.04479,0.05094,0.0445
2023-10-25 00:00:00,0.04466,0.04465,0.04488,0.04442
2023-10-25 08:00:00,0.04542,0.04591,0.04604,0.04452
2023-10-25 16:00:00,0.04834,0.04715,0.04842,0.04681
2023-10-26 00:00:00,0.04552,0.04504,0.04582,0.04494
2023-10-26 08:00:00,0.04503,0.04558,0.046,0.04495
2023-10-26 16:00:00,0.0451,0.04486,0.04557,0.0447
2023-10-27 00:00:00,0.04372,0.04423,0.04458,0.04358
2023-10-27 08:00:00,0.04242,0.0421,0.04311,0.04182
2023-10-27 16:00:00,0.04197,0.04118,0.04214,0.03994
2023-10-28 00:00:00,0.04148,0.04153,0.04191,0.04132
2023-10-28 08:00:00,0.04202,0.04147,0.04244,0.04135
2023-10-28 16:00:00,0.04095,0.04102,0.04131,0.04077
2023-10-29 00:00:00,0.04104,0.04091,0.04119,0.04088
2023-10-29 08:00:00,0.04104,0.04091,0.04111,0.04085
2023-10-29 16:00:00,0.0411,0.04199,0.04255,0.04098
2023-10-30 00:00:00,0.04315,0.04192,0.04324,0.04186
2023-10-30 08:00:00,0.04135,0.04181,0.04215,0.0411
2023-10-30 16:00:00,0.04164,0.042,0.04202,0.04128
2023-10-31 00:00:00,0.04142,0.04122,0.04173,0.04122
2023-10-31 08:00:00,0.04242,0.0424,0.04333,0.0423
2023-10-31 16:00:00,0.0421,0.0422,0.04246,0.04161
2023-11-01 00:00:00,0.04263,0.04141,0.04263,0.04135
2023-11-01 08:00:00,0.04183,0.04116,0.04183,0.04115
2023-11-01 16:00:00,0.04074,0.04105,0.04119,0.0402
2023-11-02 00:00:00,0.04242,0.04049,0.04254,0.03985
2023-11-02 08:00:00,0.04113,0.04113,0.04159,0.041
2023-11-02 16:00:00,0.04062,0.04163,0.04184,0.04057
2023-11-03 00:00:00,0.04144,0.04091,0.0415,0.04071
2023-11-03 08:00:00,0.04093,0.04097,0.04166,0.04067
2023-11-03 16:00:00,0.04155,0.04197,0.04301,0.04155
2023-11-04 00:00:00,0.04417,0.04444,0.04444,0.04371
2023-11-04 08:00:00,0.04395,0.04326,0.04395,0.04308
2023-11-04 16:00:00,0.0424,0.04231,0.04264,0.04226
2023-11-05 00:00:00,0.04226,0.04286,0.04294,0.04201
2023-11-05 08:00:00,0.0431,0.0428,0.04328,0.0424
2023-11-05 16:00:00,0.04378,0.04567,0.04591,0.04373
2023-11-06 00:00:00,0.0444,0.04469,0.04475,0.04386
2023-11-06 08:00:00,0.04459,0.04443,0.04543,0.04415
2023-11-06 16:00:00,0.04656,0.04697,0.04698,0.04609
2023-11-07 00:00:00,0.04722,0.0487,0.04936,0.04722
2023-11-07 08:00:00,0.04872,0.04625,0.04881,0.04582
2023-11-07 16:00:00,0.04648,0.04735,0.04752,0.04608
2023-11-08 00:00:00,0.04778,0.04682,0.04778,0.04669
2023-11-08 08:00:00,0.04361,0.04497,0.04535,0.041
2023-11-08 16:00:00,0.04271,0.04408,0.04408,0.0425
2023-11-09 00:00:00,0.0431,0.04346,0.04364,0.04292
2023-11-09 08:00:00,0.04303,0.0437,0.0444,0.04303
2023-11-09 16:00:00,0.04305,0.0416,0.0432,0.04119
2023-11-10 00:00:00,0.0412,0.04172,0.0419,0.04106
2023-11-10 08:00:00,0.04232,0.04248,0.04306,0.042
2023-11-10 16:00:00,0.04268,0.04316,0.044,0.0424
2023-11-11 00:00:00,0.04431,0.04521,0.04558,0.044
2023-11-11 08:00:00,0.04583,0.04411,0.046,0.044
2023-11-11 16:00:00,0.04337,0.04366,0.04388,0.04334
2023-11-12 00:00:00,0.04373,0.04351,0.04373,0.0431
2023-11-12 08:00:00,0.04469,0.04446,0.04555,0.0444
2023-11-12 16:00:00,0.04543,0.04493,0.04546,0.04463
2023-11-13 00:00:00,0.04506,0.04553,0.04598,0.045
2023-11-13 08:00:00,0.04566,0.04478,0.0462,0.04446
2023-11-13 16:00:00,0.04464,0.04413,0.04477,0.04399
2023-11-14 00:00:00,0.04374,0.04328,0.04374,0.04328
2023-11-14 08:00:00,0.04313,0.04373,0.04383,0.0428
2023-11-14 16:00:00,0.04424,0.04486,0.046,0.04424
2023-11-15 00:00:00,0.0449,0.04405,0.04498,0.044
2023-11-15 08:00:00,0.044,0.04402,0.04458,0.04385
2023-11-15 16:00:00,0.0442,0.04515,0.04522,0.04379
2023-11-16 00:00:00,0.04701,0.0474,0.0474,0.04669
2023-11-16 08:00:00,0.04596,0.04728,0.0473,0.04574
2023-11-16 16:00:00,0.04789,0.04645,0.048,0.045
2023-11-17 00:00:00,0.04616,0.04549,0.04625,0.04529
2023-11-17 08:00:00,0.04516,0.04621,0.0466,0.0451
2023-11-17 16:00:00,0.04463,0.04594,0.04605,0.0441
2023-11-18 00:00:00,0.04665,0.04768,0.0478,0.0464
2023-11-18 08:00:00,0.04609,0.04546,0.04615,0.04528
2023-11-18 16:00:00,0.04624,0.04611,0.0467,0.0458
2023-11-19 00:00:00,0.0455,0.04534,0.04553,0.0452
2023-11-19 08:00:00,0.04611,0.04648,0.04693,0.04604
2023-11-19 16:00:00,0.04704,0.04715,0.04725,0.04689
2023-11-20 00:00:00,0.04692,0.04672,0.04708,0.0466
2023-11-20 08:00:00,0.04637,0.04679,0.04698,0.0458
2023-11-20 16:00:00,0.04739,0.05175,0.056,0.04727
2023-11-21 00:00:00,0.05522,0.05494,0.05593,0.05378
2023-11-21 08:00:00,0.05397,0.05298,0.05397,0.05205
2023-11-21 16:00:00,0.0523,0.05155,0.05233,0.04896
2023-11-22 00:00:00,0.04955,0.04991,0.05086,0.04926
2023-11-22 08:00:00,0.05222,0.05475,0.05502,0.05222
2023-11-22 16:00:00,0.05767,0.05946,0.06,0.05605
2023-11-23 00:00:00,0.05934,0.05801,0.0595,0.05799
2023-11-23 08:00:00,0.05881,0.06077,0.06396,0.05881
2023-11-23 16:00:00,0.05935,0.06011,0.06186,0.05888
2023-11-24 00:00:00,0.05823,0.0587,0.05911,0.058
2023-11-24 08:00:00,0.05988,0.06025,0.06094,0.0595
2023-11-24 16:00:00,0.05867,0.05857,0.05947,0.058
2023-11-25 00:00:00,0.05718,0.05602,0.05719,0.056
2023-11-25 08:00:00,0.05705,0.05558,0.05735,0.05533
2023-11-25 16:00:00,0.05491,0.0559,0.05605,0.05416
2023-11-26 00:00:00,0.05643,0.056,0.05643,0.056
2023-11-26 08:00:00,0.05477,0.05459,0.05549,0.0545
2023-11-26 16:00:00,0.05351,0.05467,0.05597,0.05301
2023-11-27 00:00:00,0.05377,0.05427,0.05471,0.05365
2023-11-27 08:00:00,0.05234,0.05131,0.05332,0.0512
2023-11-27 16:00:00,0.04999,0.05109,0.05232,0.0498
2023-11-28 00:00:00,0.05044,0.05062,0.05151,0.05034
2023-11-28 08:00:00,0.04974,0.05148,0.05173,0.04952
2023-11-28 16:00:00,0.05204,0.05278,0.05353,0.05154
2023-11-29 00:00:00,0.0509,0.05126,0.05153,0.05046
2023-11-29 08:00:00,0.05126,0.05016,0.05179,0.05014
2023-11-29 16:00:00,0.05357,0.05492,0.05605,0.05312
2023-11-30 00:00:00,0.05662,0.05533,0.057,0.055
2023-11-30 08:00:00,0.05449,0.05516,0.0562,0.05412
2023-11-30 16:00:00,0.0529,0.05175,0.05355,0.05149
2023-12-01 00:00:00,0.05283,0.05368,0.054,0.05239
2023-12-01 08:00:00,0.05248,0.05364,0.055,0.05194
2023-12-01 16:00:00,0.05383,0.05283,0.0543,0.052
2023-12-02 00:00:00,0.05437,0.0559,0.05596,0.05424
2023-12-02 08:00:00,0.05504,0.05557,0.05595,0.05441
2023-12-02 16:00:00,0.05803,0.05759,0.05803,0.05573
2023-12-03 00:00:00,0.0587,0.05772,0.059,0.057
2023-12-03 08:00:00,0.05698,0.05621,0.05708,0.05565
2023-12-03 16:00:00,0.05632,0.05498,0.05671,0.05463
2023-12-04 00:00:00,0.05346,0.05235,0.05402,0.05169
2023-12-04 08:00:00,0.05121,0.05068,0.0548,0.05
2023-12-04 16:00:00,0.0521,0.05255,0.05255,0.051
2023-12-05 00:00:00,0.05166,0.05037,0.05182,0.05
2023-12-05 08:00:00,0.05094,0.05051,0.0511,0.05046
2023-12-05 16:00:00,0.04882,0.04871,0.04957,0.048
2023-12-06 00:00:00,0.05079,0.05136,0.05217,0.05002
2023-12-06 08:00:00,0.05174,0.05221,0.0525,0.051
2023-12-06 16:00:00,0.052,0.05158,0.053,0.0502
2023-12-07 00:00:00,0.05109,0.051,0.0516,0.05045
2023-12-07 08:00:00,0.05232,0.05161,0.053,0.05079
2023-12-07 16:00:00,0.05222,0.05165,0.05249,0.05105
2023-12-08 00:00:00,0.05125,0.04985,0.05259,0.04824
2023-12-08 08:00:00,0.05025,0.04955,0.051,0.04787
2023-12-08 16:00:00,0.05056,0.05042,0.05128,0.05002
2023-12-09 00:00:00,0.05047,0.0513,0.0516,0.04977
2023-12-09 08:00:00,0.05167,0.05141,0.05255,0.05053
2023-12-09 16:00:00,0.05099,0.05123,0.05157,0.05055
2023-12-10 00:00:00,0.05057,0.05008,0.05082,0.0493
2023-12-10 08:00:00,0.04993,0.05009,0.05012,0.04975
2023-12-10 16:00:00,0.04937,0.04944,0.04953,0.049
2023-12-11 00:00:00,0.05006,0.04904,0.05008,0.04851
2023-12-11 08:00:00,0.048,0.04622,0.048,0.04601
2023-12-11 16:00:00,0.04682,0.0446,0.04709,0.04415
2023-12-12 00:00:00,0.04452,0.04599,0.04636,0.04403
2023-12-12 08:00:00,0.04574,0.05241,0.05446,0.04454
2023-12-12 16:00:00,0.05004,0.04704,0.05099,0.04704
2023-12-13 00:00:00,0.0484,0.04872,0.049,0.04711
2023-12-13 08:00:00,0.05023,0.04903,0.05072,0.04839
2023-12-13 16:00:00,0.04784,0.04737,0.04886,0.04649
2023-12-14 00:00:00,0.04891,0.04806,0.049,0.04752
2023-12-14 08:00:00,0.04848,0.04839,0.04887,0.04752
2023-12-14 16:00:00,0.04819,0.04735,0.04891,0.047
2023-12-15 00:00:00,0.0475,0.04728,0.04823,0.04695
2023-12-15 08:00:00,0.04681,0.04799,0.048,0.04657
2023-12-15 16:00:00,0.04601,0.0458,0.04675,0.04541
2023-12-16 00:00:00,0.0447,0.04517,0.046,0.04403
2023-12-16 08:00:00,0.04494,0.04563,0.04563,0.04476
2023-12-16 16:00:00,0.04575,0.04486,0.04586,0.04412
2023-12-17 00:00:00,0.04263,0.04352,0.04386,0.04202
2023-12-17 08:00:00,0.04354,0.04368,0.04556,0.04313
2023-12-17 16:00:00,0.04362,0.0445,0.04494,0.04276
2023-12-18 00:00:00,0.04183,0.04228,0.04264,0.04141
2023-12-18 08:00:00,0.03981,0.04,0.041,0.039
2023-12-18 16:00:00,0.04076,0.04139,0.04145,0.03989
2023-12-19 00:00:00,0.04176,0.042,0.04216,0.04104
2023-12-19 08:00:00,0.04283,0.04288,0.04399,0.04193
2023-12-19 16:00:00,0.04218,0.04238,0.04288,0.041
2023-12-20 00:00:00,0.04255,0.04589,0.04642,0.04255
2023-12-20 08:00:00,0.04678,0.04444,0.047,0.04432
2023-12-20 16:00:00,0.04626,0.04645,0.04681,0.0455
2023-12-21 00:00:00,0.04772,0.04809,0.04809,0.04667
2023-12-21 08:00:00,0.04891,0.04641,0.04893,0.046
2023-12-21 16:00:00,0.04631,0.0467,0.04686,0.0452
2023-12-22 00:00:00,0.04732,0.04647,0.04747,0.04619
2023-12-22 08:00:00,0.04601,0.04531,0.04616,0.04502
2023-12-22 16:00:00,0.045,0.04661,0.047,0.045
2023-12-23 00:00:00,0.0466,0.04533,0.0468,0.04523
2023-12-23 08:00:00,0.04585,0.04536,0.04605,0.04513
2023-12-23 16:00:00,0.04576,0.04516,0.04676,0.045
2023-12-24 00:00:00,0.045,0.04374,0.04543,0.043
2023-12-24 08:00:00,0.04342,0.04366,0.04383,0.04262
2023-12-24 16:00:00,0.04411,0.0447,0.04522,0.04357
2023-12-25 00:00:00,0.04577,0.04568,0.047,0.04531
2023-12-25 08:00:00,0.04632,0.04553,0.04758,0.0453
2023-12-25 16:00:00,0.04634,0.04634,0.04662,0.045
2023-12-26 00:00:00,0.04692,0.04683,0.04724,0.04632
2023-12-26 08:00:00,0.04586,0.04537,0.04676,0.04487
2023-12-26 16:00:00,0.04446,0.0452,0.0463,0.04306
2023-12-27 00:00:00,0.04474,0.0444,0.04576,0.04403
2023-12-27 08:00:00,0.04526,0.04582,0.04621,0.04497
2023-12-27 16:00:00,0.04563,0.04608,0.04636,0.04512
2023-12-28 00:00:00,0.04722,0.04745,0.04841,0.0469
2023-12-28 08:00:00,0.04805,0.04688,0.04825,0.04643
2023-12-28 16:00:00,0.0452,0.04523,0.04686,0.04489
2023-12-29 00:00:00,0.04581,0.04634,0.0464,0.0442
2023-12-29 08:00:00,0.04537,0.04481,0.04603,0.04444
2023-12-29 16:00:00,0.04426,0.04462,0.045,0.04378
2023-12-30 00:00:00,0.04459,0.0444,0.045,0.0441
2023-12-30 08:00:00,0.04405,0.04365,0.0446,0.04318
2023-12-30 16:00:00,0.0442,0.04314,0.04448,0.04299
2023-12-31 00:00:00,0.04218,0.04215,0.04297,0.04111
2023-12-31 08:00:00,0.04207,0.04244,0.043,0.04171
2023-12-31 16:00:00,0.0429,0.04267,0.04354,0.04214
2024-01-01 00:00:00,0.0415,0.04088,0.04181,0.04077
2024-01-01 08:00:00,0.04171,0.0422,0.04268,0.04146
2024-01-01 16:00:00,0.04142,0.04146,0.0418,0.0408
2024-01-02 00:00:00,0.04272,0.0425,0.04346,0.04215
2024-01-02 08:00:00,0.04207,0.04244,0.04327,0.042
2024-01-02 16:00:00,0.04215,0.04177,0.04235,0.04091
2024-01-03 00:00:00,0.04228,0.04236,0.04632,0.04068
2024-01-03 08:00:00,0.04257,0.04154,0.04284,0.0415
2024-01-03 16:00:00,0.04071,0.04079,0.04151,0.04036
2024-01-04 00:00:00,0.04125,0.04133,0.04165,0.04083
2024-01-04 08:00:00,0.04085,0.04082,0.04107,0.03979
2024-01-04 16:00:00,0.04196,0.04291,0.04306,0.04181
2024-01-05 00:00:00,0.04397,0.04322,0.04445,0.04307
2024-01-05 08:00:00,0.04284,0.04323,0.04358,0.04235
2024-01-05 16:00:00,0.04216,0.04243,0.04274,0.04159
2024-01-06 00:00:00,0.04291,0.04202,0.04291,0.04189
2024-01-06 08:00:00,0.04201,0.042,0.04269,0.04169
2024-01-06 16:00:00,0.04259,0.04234,0.04274,0.04155
2024-01-07 00:00:00,0.04225,0.0423,0.04249,0.04173
2024-01-07 08:00:00,0.04258,0.04171,0.04278,0.04164
2024-01-07 16:00:00,0.04119,0.04103,0.04143,0.04077
2024-01-08 00:00:00,0.0412,0.04034,0.04125,0.04002
2024-01-08 08:00:00,0.04074,0.0407,0.04111,0.04
2024-01-08 16:00:00,0.04032,0.04173,0.04212,0.03962
2024-01-09 00:00:00,0.04187,0.04068,0.04196,0.04058
2024-01-09 08:00:00,0.04062,0.03972,0.04083,0.03913
2024-01-09 16:00:00,0.03978,0.04034,0.04034,0.0393
2024-01-10 00:00:00,0.03976,0.0395,0.04006,0.03935
2024-01-10 08:00:00,0.03955,0.03957,0.04,0.03931
2024-01-10 16:00:00,0.0392,0.03888,0.03947,0.03869
2024-01-11 00:00:00,0.04055,0.04108,0.04137,0.04041
2024-01-11 08:00:00,0.04089,0.04092,0.041,0.0402
2024-01-11 20:00:00,0.04048,0.04041,0.04117,0.04019
2024-01-12 04:00:00,0.04064,0.0405,0.04078,0.04006
2024-01-12 12:00:00,0.04051,0.04015,0.04107,0.03978
2024-01-12 20:00:00,0.03972,0.03932,0.03978,0.0378
2024-01-13 04:00:00,0.03948,0.03971,0.03985,0.03945
2024-01-13 12:00:00,0.03913,0.03976,0.03976,0.03889
2024-01-13 20:00:00,0.03958,0.04048,0.04089,0.03934
2024-01-14 04:00:00,0.04141,0.04134,0.04228,0.04085
2024-01-14 12:00:00,0.04112,0.0413,0.04153,0.04106
2024-01-14 20:00:00,0.04006,0.04058,0.04176,0.03969
2024-01-15 04:00:00,0.0401,0.03992,0.04036,0.03976
2024-01-15 12:00:00,0.04085,0.04133,0.04208,0.04043
2024-01-15 20:00:00,0.04242,0.04308,0.04382,0.04203
2024-01-16 04:00:00,0.04302,0.04353,0.04634,0.04297
2024-01-16 12:00:00,0.04233,0.04239,0.04281,0.04155
2024-01-16 20:00:00,0.0448,0.04509,0.04604,0.0448
2024-01-17 04:00:00,0.04288,0.04207,0.04327,0.04195
2024-01-17 12:00:00,0.04403,0.04309,0.04421,0.043
2024-01-17 20:00:00,0.04379,0.04538,0.04545,0.04338
2024-01-18 04:00:00,0.0438,0.04389,0.04418,0.04358
2024-01-18 12:00:00,0.04418,0.04397,0.04418,0.0431
2024-01-18 20:00:00,0.04338,0.04273,0.04344,0.0424
2024-01-19 04:00:00,0.04339,0.04366,0.04403,0.04334
2024-01-19 12:00:00,0.0458,0.04417,0.04638,0.0433
2024-01-19 20:00:00,0.04428,0.04445,0.045,0.04401
2024-01-20 04:00:00,0.04497,0.04371,0.04518,0.04357
2024-01-20 12:00:00,0.04364,0.04364,0.04404,0.04345
2024-01-20 20:00:00,0.04372,0.04464,0.04471,0.04355
2024-01-21 04:00:00,0.04413,0.04342,0.04417,0.04325
2024-01-21 12:00:00,0.04407,0.04382,0.04563,0.04382
2024-01-21 20:00:00,0.04437,0.0445,0.04499,0.04427
2024-01-22 04:00:00,0.04337,0.04218,0.0436,0.04218
2024-01-22 12:00:00,0.04177,0.04151,0.0427,0.04095
2024-01-22 20:00:00,0.04077,0.04046,0.04139,0.04001
2024-01-23 04:00:00,0.04109,0.04005,0.04112,0.03985
2024-01-23 12:00:00,0.04004,0.03977,0.04015,0.0382
2024-01-23 20:00:00,0.03927,0.04107,0.04206,0.03927
2024-01-24 04:00:00,0.04155,0.04201,0.04236,0.04144
2024-01-24 12:00:00,0.04166,0.04088,0.04183,0.04046
2024-01-24 20:00:00,0.04055,0.04063,0.04172,0.03953
2024-01-25 04:00:00,0.04034,0.04058,0.0409,0.04028
2024-01-25 16:00:00,0.04032,0.04034,0.04042,0.0399
2024-01-26 00:00:00,0.04027,0.04056,0.04081,0.03991
2024-01-26 08:00:00,0.04034,0.04123,0.04137,0.03951
2024-01-26 16:00:00,0.04169,0.04276,0.04307,0.0416
2024-01-27 00:00:00,0.04323,0.04427,0.04545,0.04268
2024-01-27 08:00:00,0.04331,0.04411,0.04547,0.04279
2024-01-27 16:00:00,0.04393,0.04266,0.0442,0.04259
2024-01-28 00:00:00,0.04279,0.04306,0.044,0.04278
2024-01-28 08:00:00,0.04328,0.04182,0.0434,0.04124
2024-01-28 16:00:00,0.0418,0.04111,0.04188,0.04077
2024-01-29 00:00:00,0.04148,0.042,0.04311,0.04107
2024-01-29 08:00:00,0.04152,0.04239,0.04357,0.04113
2024-01-29 16:00:00,0.04241,0.04251,0.04296,0.0421
2024-01-30 00:00:00,0.04248,0.04172,0.04248,0.04135
2024-01-30 08:00:00,0.04181,0.04187,0.04208,0.04156
2024-01-30 16:00:00,0.04154,0.04146,0.04179,0.041
2024-01-31 00:00:00,0.04065,0.04044,0.04107,0.04
2024-01-31 08:00:00,0.04025,0.04032,0.04055,0.0399
2024-01-31 16:00:00,0.04051,0.04108,0.0417,0.04046
2024-02-01 00:00:00,0.04008,0.04015,0.04146,0.03933
2024-02-01 08:00:00,0.0403,0.04014,0.04033,0.03993
2024-02-01 16:00:00,0.0403,0.04041,0.04046,0.03955
2024-02-02 00:00:00,0.04039,0.0406,0.04062,0.04004
2024-02-02 08:00:00,0.0408,0.041,0.04114,0.04078